ACCELEROMETER X (m/s²),ACCELEROMETER Y (m/s²),ACCELEROMETER Z (m/s²),GRAVITY X (m/s²),GRAVITY Y (m/s²),GRAVITY Z (m/s²),LINEAR ACCELERATION X (m/s²),LINEAR ACCELERATION Y (m/s²),LINEAR ACCELERATION Z (m/s²),LIGHT (lux),MAGNETIC FIELD X (μT),MAGNETIC FIELD Y (μT),MAGNETIC FIELD Z (μT),ORIENTATION Z (azimuth °),ORIENTATION X (pitch °),ORIENTATION Y (roll °),PROXIMITY (i),SOUND LEVEL (dB),LOCATION Latitude : ,LOCATION Longitude : ,LOCATION Altitude ( m),LOCATION Altitude-google ( m),LOCATION Speed ( m/s),LOCATION Accuracy ( m),LOCATION ORIENTATION (°),Satellites in range,Time since start in ms ,YYYY-MO-DD HH-MI-SS_SSS
0.7662,-0.9529,9.8677,0.0103,-1.0727,9.7478,0.4541,0.0458,-0.0921,40.0,35.22,28.81,15.71,310.89,6.13,0.77,2.0,34.061,-7.760324,110.37554,534.36,NaN,0.0,10.374194,,18 / 36,65,2020-09-27 05:39:18:900
0.7662,-0.9529,9.8677,0.0103,-1.0727,9.7478,0.4541,0.0458,-0.0921,40.0,35.22,28.81,15.71,310.89,6.13,0.77,2.0,34.061,-7.760324,110.37554,534.36,NaN,0.0,10.374194,,18 / 36,76,2020-09-27 05:39:18:911
0.7662,-0.9529,9.8677,0.0103,-1.0727,9.7478,0.4541,0.0458,-0.0921,40.0,35.22,28.81,15.71,310.89,6.13,0.77,2.0,34.061,-7.760324,110.37554,534.36,NaN,0.0,10.374194,,18 / 36,85,2020-09-27 05:39:18:920
0.7662,-0.9529,9.8677,0.0103,-1.0727,9.7478,0.4541,0.0458,-0.0921,40.0,35.22,28.81,15.71,310.89,6.13,0.77,2.0,34.061,-7.760324,110.37554,534.36,NaN,0.0,10.374194,,18 / 36,95,2020-09-27 05:39:18:930
0.7662,-0.9529,9.8677,0.0103,-1.0727,9.7478,0.4541,0.0458,-0.0921,40.0,35.22,28.81,15.71,310.89,6.13,0.77,2.0,34.061,-7.760324,110.37554,534.36,NaN,0.0,10.374194,,18 / 36,105,2020-09-27 05:39:18:940
0.7662,-0.9529,9.8677,0.0103,-1.0727,9.7478,0.4541,0.0458,-0.0921,40.0,35.22,28.81,15.71,310.89,6.13,0.77,2.0,34.061,-7.760324,110.37554,534.36,NaN,0.0,10.374194,,18 / 36,115,2020-09-27 05:39:18:950
0.7662,-0.9529,9.8677,0.0103,-1.0727,9.7478,0.4541,0.0458,-0.0921,40.0,36.48,27.76,12.08,309.01,6.28,-0.06,2.0,34.061,-7.760324,110.37554,534.36,NaN,0.0,10.374194,,18 / 36,125,2020-09-27 05:39:18:960
0.7662,-0.9529,9.8677,0.0103,-1.0727,9.7478,0.4541,0.0458,-0.0921,40.0,36.48,27.76,12.08,309.01,6.28,-0.06,2.0,34.061,-7.760324,110.37554,534.36,NaN,0.0,10.374194,,18 / 36,135,2020-09-27 05:39:18:970
0.7662,-0.9529,9.8677,0.0103,-1.0727,9.7478,0.4541,0.0458,-0.0921,40.0,36.48,27.76,12.08,309.01,6.28,-0.06,2.0,34.061,-7.760324,110.37554,534.36,NaN,0.0,10.374194,,18 / 36,145,2020-09-27 05:39:18:980
0.7662,-0.9529,9.8677,0.0103,-1.0727,9.7478,0.4541,0.0458,-0.0921,40.0,36.48,27.76,12.08,309.01,6.28,-0.06,2.0,34.061,-7.760324,110.37554,534.36,NaN,0.0,10.374194,,18 / 36,154,2020-09-27 05:39:18:989
0.7662,-0.9529,9.8677,0.0103,-1.0727,9.7478,0.4541,0.0458,-0.0921,40.0,36.48,27.76,12.08,309.01,6.28,-0.06,2.0,34.061,-7.760324,110.37554,534.36,NaN,0.0,10.374194,,18 / 36,164,2020-09-27 05:39:18:999
0.7662,-0.9529,9.8677,0.0103,-1.0727,9.7478,0.4541,0.0458,-0.0921,40.0,36.48,27.76,12.08,309.01,6.28,-0.06,2.0,34.061,-7.760324,110.37554,534.36,NaN,0.0,10.374194,,18 / 36,176,2020-09-27 05:39:19:011
0.7662,-0.9529,9.8677,0.0103,-1.0727,9.7478,0.4541,0.0458,-0.0921,40.0,36.48,27.76,12.08,309.01,6.28,-0.06,2.0,34.061,-7.760324,110.37554,534.36,NaN,0.0,10.374194,,18 / 36,185,2020-09-27 05:39:19:020
1.1253,-1.2737,9.7815,0.0103,-1.0727,9.7478,0.4541,0.0458,-0.0921,40.0,36.48,27.76,12.08,309.01,6.28,-0.06,2.0,34.061,-7.760324,110.37554,534.36,NaN,0.0,10.374194,,18 / 36,195,2020-09-27 05:39:19:030
1.1253,-1.2737,9.7815,0.4689,-1.1542,9.7272,0.4849,-0.1556,-0.0302,40.0,36.48,27.76,12.08,309.01,6.28,-0.06,2.0,34.998,-7.760324,110.37554,534.36,NaN,0.0,10.374194,,18 / 36,205,2020-09-27 05:39:19:040
1.1253,-1.2737,9.7815,0.4689,-1.1542,9.7272,0.4849,-0.1556,-0.0302,40.0,36.48,27.76,12.08,309.01,6.28,-0.06,2.0,34.998,-7.760324,110.37554,534.36,NaN,0.0,10.374194,,18 / 36,215,2020-09-27 05:39:19:050
1.1253,-1.2737,9.7815,0.4689,-1.1542,9.7272,0.4849,-0.1556,-0.0302,40.0,36.48,27.76,12.08,309.01,6.28,-0.06,2.0,34.998,-7.760324,110.37554,534.36,NaN,0.0,10.374194,,18 / 36,226,2020-09-27 05:39:19:061
1.1253,-1.2737,9.7815,0.4689,-1.1542,9.7272,0.4849,-0.1556,-0.0302,40.0,36.48,27.76,12.08,309.01,6.28,-0.06,2.0,34.998,-7.760324,110.37554,534.36,NaN,0.0,10.374194,,18 / 36,235,2020-09-27 05:39:19:070
1.1253,-1.2737,9.7815,0.4689,-1.1542,9.7272,0.4849,-0.1556,-0.0302,40.0,36.48,27.76,12.08,309.01,6.28,-0.06,2.0,34.998,-7.760324,110.37554,534.36,NaN,0.0,10.374194,,18 / 36,245,2020-09-27 05:39:19:080
1.1253,-1.2737,9.7815,0.4689,-1.1542,9.7272,0.4849,-0.1556,-0.0302,40.0,36.48,27.76,12.08,309.01,6.28,-0.06,2.0,34.998,-7.760324,110.37554,534.36,NaN,0.0,10.374194,,18 / 36,255,2020-09-27 05:39:19:090
1.1253,-1.2737,9.7815,0.4689,-1.1542,9.7272,0.4849,-0.1556,-0.0302,40.0,36.48,27.76,12.08,309.01,6.28,-0.06,2.0,34.998,-7.760324,110.37554,534.36,NaN,0.0,10.374194,,18 / 36,265,2020-09-27 05:39:19:100
1.1253,-1.2737,9.7815,0.4689,-1.1542,9.7272,0.4849,-0.1556,-0.0302,40.0,36.48,27.76,12.08,309.01,6.28,-0.06,2.0,34.998,-7.760324,110.37554,534.36,NaN,0.0,10.374194,,18 / 36,275,2020-09-27 05:39:19:110
1.1253,-1.2737,9.7815,0.4689,-1.1542,9.7272,0.4849,-0.1556,-0.0302,40.0,37.63,27.01,10.93,307.12,6.76,-2.76,2.0,34.998,-7.760324,110.37554,534.36,NaN,0.0,10.374194,,18 / 36,285,2020-09-27 05:39:19:120
1.1253,-1.2737,9.7815,0.4689,-1.1542,9.7272,0.4849,-0.1556,-0.0302,40.0,37.63,27.01,10.93,307.12,6.76,-2.76,2.0,34.998,-7.760324,110.37554,534.36,NaN,0.0,10.374194,,18 / 36,295,2020-09-27 05:39:19:130
1.1253,-1.2737,9.7815,0.4689,-1.1542,9.7272,0.4849,-0.1556,-0.0302,40.0,37.63,27.01,10.93,307.12,6.76,-2.76,2.0,34.998,-7.760324,110.37554,534.36,NaN,0.0,10.374194,,18 / 36,305,2020-09-27 05:39:19:140
1.5514,-1.1492,9.8198,0.4689,-1.1542,9.7272,0.4849,-0.1556,-0.0302,40.0,37.63,27.01,10.93,307.12,6.76,-2.76,2.0,34.998,-7.760324,110.37554,534.36,NaN,0.0,10.374194,,18 / 36,315,2020-09-27 05:39:19:150
1.5514,-1.1492,9.8198,0.8368,-1.1673,9.7009,0.6782,0.0739,-0.2992,40.0,37.63,27.01,10.93,307.12,6.76,-2.76,2.0,34.998,-7.760324,110.37554,534.36,NaN,0.0,10.374194,,18 / 36,325,2020-09-27 05:39:19:160
1.5514,-1.1492,9.8198,0.8368,-1.1673,9.7009,0.6782,0.0739,-0.2992,40.0,37.63,27.01,10.93,307.12,6.76,-2.76,2.0,34.998,-7.760324,110.37554,534.36,NaN,0.0,10.374194,,18 / 36,335,2020-09-27 05:39:19:170
1.5514,-1.1492,9.8198,0.8368,-1.1673,9.7009,0.6782,0.0739,-0.2992,40.0,37.63,27.01,10.93,307.12,6.76,-2.76,2.0,34.998,-7.760324,110.37554,534.36,NaN,0.0,10.374194,,18 / 36,345,2020-09-27 05:39:19:180
1.5514,-1.1492,9.8198,0.8368,-1.1673,9.7009,0.6782,0.0739,-0.2992,40.0,37.63,27.01,10.93,307.12,6.76,-2.76,2.0,34.998,-7.760324,110.37554,534.36,NaN,0.0,10.374194,,18 / 36,355,2020-09-27 05:39:19:190
1.5514,-1.1492,9.8198,0.8368,-1.1673,9.7009,0.6782,0.0739,-0.2992,40.0,37.63,27.01,10.93,307.12,6.76,-2.76,2.0,34.998,-7.760324,110.37554,534.36,NaN,0.0,10.374194,,18 / 36,368,2020-09-27 05:39:19:203
1.5514,-1.1492,9.8198,0.8368,-1.1673,9.7009,0.6782,0.0739,-0.2992,40.0,37.63,27.01,10.93,307.12,6.76,-2.76,2.0,34.998,-7.760324,110.37554,534.36,NaN,0.0,10.374194,,18 / 36,374,2020-09-27 05:39:19:209
1.5514,-1.1492,9.8198,0.8368,-1.1673,9.7009,0.6782,0.0739,-0.2992,40.0,37.63,27.01,10.93,307.12,6.76,-2.76,2.0,34.998,-7.760324,110.37554,534.36,NaN,0.0,10.374194,,18 / 36,385,2020-09-27 05:39:19:220
1.5514,-1.1492,9.8198,0.8368,-1.1673,9.7009,0.6782,0.0739,-0.2992,40.0,37.19,26.97,9.39,308.06,6.84,-4.93,2.0,34.998,-7.760324,110.37554,534.36,NaN,0.0,10.374194,,18 / 36,395,2020-09-27 05:39:19:230
1.5514,-1.1492,9.8198,0.8368,-1.1673,9.7009,0.6782,0.0739,-0.2992,40.0,37.19,26.97,9.39,308.06,6.84,-4.93,2.0,34.998,-7.760324,110.37554,534.36,NaN,0.0,10.374194,,18 / 36,405,2020-09-27 05:39:19:240
1.5514,-1.1492,9.8198,0.8368,-1.1673,9.7009,0.6782,0.0739,-0.2992,39.0,37.19,26.97,9.39,308.06,6.84,-4.93,2.0,34.998,-7.760324,110.37554,534.36,NaN,0.0,10.374194,,18 / 36,415,2020-09-27 05:39:19:250
1.5514,-1.1492,9.8198,0.8368,-1.1673,9.7009,0.6782,0.0739,-0.2992,39.0,37.19,26.97,9.39,308.06,6.84,-4.93,2.0,34.998,-7.760324,110.37554,534.36,NaN,0.0,10.374194,,18 / 36,425,2020-09-27 05:39:19:260
1.5514,-1.1492,9.8198,0.8368,-1.1673,9.7009,0.6782,0.0739,-0.2992,39.0,37.19,26.97,9.39,308.06,6.84,-4.93,2.0,34.998,-7.760324,110.37554,534.36,NaN,0.0,10.374194,,18 / 36,435,2020-09-27 05:39:19:270
2.0399,-1.3407,9.9683,0.8368,-1.1673,9.7009,0.6782,0.0739,-0.2992,39.0,37.19,26.97,9.39,308.06,6.84,-4.93,2.0,34.998,-7.760324,110.37554,534.36,NaN,0.0,10.374194,,18 / 36,445,2020-09-27 05:39:19:280
2.0399,-1.3407,9.9683,0.8368,-1.1673,9.7009,0.6782,0.0739,-0.2992,39.0,37.19,26.97,9.39,308.06,6.84,-4.93,2.0,34.998,-7.760324,110.37554,534.36,NaN,0.0,10.374194,,18 / 36,455,2020-09-27 05:39:19:290
2.0399,-1.3407,9.9683,0.8368,-1.1673,9.7009,0.6782,0.0739,-0.2992,39.0,37.19,26.97,9.39,308.06,6.84,-4.93,2.0,34.998,-7.760324,110.37554,534.36,NaN,0.0,10.374194,,18 / 36,465,2020-09-27 05:39:19:300
2.0399,-1.3407,9.9683,1.2139,-1.2281,9.6534,0.5597,-0.1477,0.0197,39.0,37.19,26.97,9.39,308.06,6.84,-4.93,2.0,34.998,-7.760324,110.37554,534.36,NaN,0.0,10.374194,,18 / 36,475,2020-09-27 05:39:19:310
2.0399,-1.3407,9.9683,1.2139,-1.2281,9.6534,0.5597,-0.1477,0.0197,39.0,37.19,26.97,9.39,308.06,6.84,-4.93,2.0,34.998,-7.760324,110.37554,534.36,NaN,0.0,10.374194,,18 / 36,485,2020-09-27 05:39:19:320
2.0399,-1.3407,9.9683,1.2139,-1.2281,9.6534,0.5597,-0.1477,0.0197,39.0,37.19,26.97,9.39,308.06,6.84,-4.93,2.0,34.998,-7.760324,110.37554,534.36,NaN,0.0,10.374194,,18 / 36,495,2020-09-27 05:39:19:330
2.0399,-1.3407,9.9683,1.2139,-1.2281,9.6534,0.5597,-0.1477,0.0197,39.0,37.19,26.97,9.39,308.06,6.84,-4.93,2.0,34.102,-7.760324,110.37554,534.36,NaN,0.0,10.374194,,18 / 36,505,2020-09-27 05:39:19:340
2.0399,-1.3407,9.9683,1.2139,-1.2281,9.6534,0.5597,-0.1477,0.0197,39.0,37.19,26.97,9.39,308.06,6.84,-4.93,2.0,34.102,-7.760324,110.37554,534.36,NaN,0.0,10.374194,,18 / 36,515,2020-09-27 05:39:19:350
2.0399,-1.3407,9.9683,1.2139,-1.2281,9.6534,0.5597,-0.1477,0.0197,39.0,37.19,26.97,9.39,308.06,6.84,-4.93,2.0,34.102,-7.760324,110.37554,534.36,NaN,0.0,10.374194,,18 / 36,524,2020-09-27 05:39:19:359
2.0399,-1.3407,9.9683,1.2139,-1.2281,9.6534,0.5597,-0.1477,0.0197,39.0,37.19,26.97,9.39,308.06,6.84,-4.93,2.0,34.102,-7.760324,110.37554,534.36,NaN,0.0,10.374194,,18 / 36,535,2020-09-27 05:39:19:370
2.0399,-1.3407,9.9683,1.2139,-1.2281,9.6534,0.5597,-0.1477,0.0197,39.0,38.43,26.31,7.97,306.72,7.19,-7.17,2.0,34.102,-7.760324,110.37554,534.36,NaN,0.0,10.374194,,18 / 36,545,2020-09-27 05:39:19:380
2.0399,-1.3407,9.9683,1.2139,-1.2281,9.6534,0.5597,-0.1477,0.0197,39.0,38.43,26.31,7.97,306.72,7.19,-7.17,2.0,34.102,-7.760324,110.37554,534.36,NaN,0.0,10.374194,,18 / 36,555,2020-09-27 05:39:19:390
2.0399,-1.3407,9.9683,1.2139,-1.2281,9.6534,0.5597,-0.1477,0.0197,39.0,38.43,26.31,7.97,306.72,7.19,-7.17,2.0,34.102,-7.760324,110.37554,534.36,NaN,0.0,10.374194,,18 / 36,565,2020-09-27 05:39:19:400
2.2841,-1.2737,9.2883,1.2139,-1.2281,9.6534,0.5597,-0.1477,0.0197,39.0,38.43,26.31,7.97,306.72,7.19,-7.17,2.0,34.102,-7.760324,110.37554,534.36,NaN,0.0,10.374194,,18 / 36,575,2020-09-27 05:39:19:410
2.2841,-1.2737,9.2883,1.6277,-1.2515,9.5893,0.7511,0.07,-0.3481,39.0,38.43,26.31,7.97,306.72,7.19,-7.17,2.0,34.102,-7.760324,110.37554,534.36,NaN,0.0,10.374194,,18 / 36,585,2020-09-27 05:39:19:420
2.2841,-1.2737,9.2883,1.6277,-1.2515,9.5893,0.7511,0.07,-0.3481,39.0,38.43,26.31,7.97,306.72,7.19,-7.17,2.0,34.102,-7.760324,110.37554,534.36,NaN,0.0,10.374194,,18 / 36,595,2020-09-27 05:39:19:430
2.2841,-1.2737,9.2883,1.6277,-1.2515,9.5893,0.7511,0.07,-0.3481,39.0,38.43,26.31,7.97,306.72,7.19,-7.17,2.0,34.102,-7.760324,110.37554,534.36,NaN,0.0,10.374194,,18 / 36,605,2020-09-27 05:39:19:440
2.2841,-1.2737,9.2883,1.6277,-1.2515,9.5893,0.7511,0.07,-0.3481,39.0,38.43,26.31,7.97,306.72,7.19,-7.17,2.0,34.102,-7.760324,110.37554,534.36,NaN,0.0,10.374194,,18 / 36,615,2020-09-27 05:39:19:450
2.2841,-1.2737,9.2883,1.6277,-1.2515,9.5893,0.7511,0.07,-0.3481,39.0,38.43,26.31,7.97,306.72,7.19,-7.17,2.0,34.102,-7.760324,110.37554,534.36,NaN,0.0,10.374194,,18 / 36,625,2020-09-27 05:39:19:460
2.2841,-1.2737,9.2883,1.6277,-1.2515,9.5893,0.7511,0.07,-0.3481,39.0,38.43,26.31,7.97,306.72,7.19,-7.17,2.0,34.102,-7.760324,110.37554,534.36,NaN,0.0,10.374194,,18 / 36,634,2020-09-27 05:39:19:469
2.2841,-1.2737,9.2883,1.6277,-1.2515,9.5893,0.7511,0.07,-0.3481,39.0,38.43,26.31,7.97,306.72,7.19,-7.17,2.0,34.102,-7.760324,110.37554,534.36,NaN,0.0,10.374194,,18 / 36,645,2020-09-27 05:39:19:480
2.2841,-1.2737,9.2883,1.6277,-1.2515,9.5893,0.7511,0.07,-0.3481,39.0,38.43,26.31,7.97,306.72,7.19,-7.17,2.0,34.102,-7.760324,110.37554,534.36,NaN,0.0,10.374194,,18 / 36,655,2020-09-27 05:39:19:490
2.2841,-1.2737,9.2883,1.6277,-1.2515,9.5893,0.7511,0.07,-0.3481,39.0,39.54,25.78,5.41,305.24,7.33,-9.63,2.0,34.102,-7.760324,110.37554,534.36,NaN,0.0,10.374194,,18 / 36,665,2020-09-27 05:39:19:500
2.2841,-1.2737,9.2883,1.6277,-1.2515,9.5893,0.7511,0.07,-0.3481,39.0,39.54,25.78,5.41,305.24,7.33,-9.63,2.0,34.102,-7.760324,110.37554,534.36,NaN,0.0,10.374194,,18 / 36,674,2020-09-27 05:39:19:509
2.2841,-1.2737,9.2883,1.6277,-1.2515,9.5893,0.7511,0.07,-0.3481,38.0,39.54,25.78,5.41,305.24,7.33,-9.63,2.0,34.102,-7.760324,110.37554,534.36,NaN,0.0,10.374194,,18 / 36,686,2020-09-27 05:39:19:521
2.2841,-1.2737,9.2883,1.6277,-1.2515,9.5893,0.7511,0.07,-0.3481,38.0,39.54,25.78,5.41,305.24,7.33,-9.63,2.0,34.102,-7.760324,110.37554,534.36,NaN,0.0,10.374194,,18 / 36,696,2020-09-27 05:39:19:531
3.1077,-1.2689,9.5517,1.6277,-1.2515,9.5893,0.7511,0.07,-0.3481,38.0,39.54,25.78,5.41,305.24,7.33,-9.63,2.0,34.102,-7.760324,110.37554,534.36,NaN,0.0,10.374194,,18 / 36,705,2020-09-27 05:39:19:540
3.1077,-1.2689,9.5517,1.6277,-1.2515,9.5893,0.7511,0.07,-0.3481,38.0,39.54,25.78,5.41,305.24,7.33,-9.63,2.0,34.102,-7.760324,110.37554,534.36,NaN,0.0,10.374194,,18 / 36,715,2020-09-27 05:39:19:550
3.1077,-1.2689,9.5517,1.6277,-1.2515,9.5893,0.7511,0.07,-0.3481,38.0,39.54,25.78,5.41,305.24,7.33,-9.63,2.0,34.102,-7.760324,110.37554,534.36,NaN,0.0,10.374194,,18 / 36,724,2020-09-27 05:39:19:559
3.1077,-1.2689,9.5517,1.6277,-1.2515,9.5893,0.7511,0.07,-0.3481,38.0,39.54,25.78,5.41,305.24,7.33,-9.63,2.0,34.102,-7.760324,110.37554,534.36,NaN,0.0,10.374194,,18 / 36,735,2020-09-27 05:39:19:570
3.1077,-1.2689,9.5517,2.1581,-1.2594,9.483,0.9092,-0.1228,-0.0256,38.0,39.54,25.78,5.41,305.24,7.33,-9.63,2.0,34.102,-7.760324,110.37554,534.36,NaN,0.0,10.374194,,18 / 36,745,2020-09-27 05:39:19:580
3.1077,-1.2689,9.5517,2.1581,-1.2594,9.483,0.9092,-0.1228,-0.0256,38.0,39.54,25.78,5.41,305.24,7.33,-9.63,2.0,34.102,-7.760324,110.37554,534.36,NaN,0.0,10.374194,,18 / 36,755,2020-09-27 05:39:19:590
3.1077,-1.2689,9.5517,2.1581,-1.2594,9.483,0.9092,-0.1228,-0.0256,38.0,39.54,25.78,5.41,305.24,7.33,-9.63,2.0,34.102,-7.760324,110.37554,534.36,NaN,0.0,10.374194,,18 / 36,766,2020-09-27 05:39:19:601
3.1077,-1.2689,9.5517,2.1581,-1.2594,9.483,0.9092,-0.1228,-0.0256,38.0,39.54,25.78,5.41,305.24,7.33,-9.63,2.0,34.102,-7.760324,110.37554,534.36,NaN,0.0,10.374194,,18 / 36,774,2020-09-27 05:39:19:609
3.1077,-1.2689,9.5517,2.1581,-1.2594,9.483,0.9092,-0.1228,-0.0256,38.0,39.54,25.78,5.41,305.24,7.33,-9.63,2.0,34.102,-7.760324,110.37554,534.36,NaN,0.0,10.374194,,18 / 36,785,2020-09-27 05:39:19:620
3.1077,-1.2689,9.5517,2.1581,-1.2594,9.483,0.9092,-0.1228,-0.0256,38.0,39.54,25.78,5.41,305.24,7.33,-9.63,2.0,34.102,-7.760324,110.37554,534.36,NaN,0.0,10.374194,,18 / 36,795,2020-09-27 05:39:19:630
3.1077,-1.2689,9.5517,2.1581,-1.2594,9.483,0.9092,-0.1228,-0.0256,38.0,39.54,25.78,5.41,305.24,7.33,-9.63,2.0,33.228,-7.760324,110.37554,534.36,NaN,0.0,10.374194,,18 / 36,805,2020-09-27 05:39:19:640
3.1077,-1.2689,9.5517,2.1581,-1.2594,9.483,0.9092,-0.1228,-0.0256,38.0,39.69,24.41,1.68,303.16,7.38,-12.82,2.0,33.228,-7.760324,110.37554,534.36,NaN,0.0,10.374194,,18 / 36,815,2020-09-27 05:39:19:650
3.2034,-1.3838,9.2883,2.1581,-1.2594,9.483,0.9092,-0.1228,-0.0256,38.0,39.69,24.41,1.68,303.16,7.38,-12.82,2.0,33.228,-7.760324,110.37554,534.36,NaN,0.0,10.374194,,18 / 36,824,2020-09-27 05:39:19:659
3.2034,-1.3838,9.2883,2.1581,-1.2594,9.483,0.9092,-0.1228,-0.0256,38.0,39.69,24.41,1.68,303.16,7.38,-12.82,2.0,33.228,-7.760324,110.37554,534.36,NaN,0.0,10.374194,,18 / 36,838,2020-09-27 05:39:19:673
3.2034,-1.3838,9.2883,2.1581,-1.2594,9.483,0.9092,-0.1228,-0.0256,38.0,39.69,24.41,1.68,303.16,7.38,-12.82,2.0,33.228,-7.760324,110.37554,534.36,NaN,0.0,10.374194,,18 / 36,845,2020-09-27 05:39:19:680
3.2034,-1.3838,9.2883,2.629,-1.2974,9.3582,0.7594,-0.0379,-0.1889,38.0,39.69,24.41,1.68,303.16,7.38,-12.82,2.0,33.228,-7.760324,110.37554,534.36,NaN,0.0,10.374194,,18 / 36,855,2020-09-27 05:39:19:690
3.2034,-1.3838,9.2883,2.629,-1.2974,9.3582,0.7594,-0.0379,-0.1889,38.0,39.69,24.41,1.68,303.16,7.38,-12.82,2.0,33.228,-7.760324,110.37554,534.36,NaN,0.0,10.374194,,18 / 36,865,2020-09-27 05:39:19:700
3.2034,-1.3838,9.2883,2.629,-1.2974,9.3582,0.7594,-0.0379,-0.1889,38.0,39.69,24.41,1.68,303.16,7.38,-12.82,2.0,33.228,-7.760324,110.37554,534.36,NaN,0.0,10.374194,,18 / 36,875,2020-09-27 05:39:19:710
3.2034,-1.3838,9.2883,2.629,-1.2974,9.3582,0.7594,-0.0379,-0.1889,38.0,39.69,24.41,1.68,303.16,7.38,-12.82,2.0,33.228,-7.760324,110.37554,534.36,NaN,0.0,10.374194,,18 / 36,885,2020-09-27 05:39:19:720
3.2034,-1.3838,9.2883,2.629,-1.2974,9.3582,0.7594,-0.0379,-0.1889,38.0,39.69,24.41,1.68,303.16,7.38,-12.82,2.0,33.228,-7.760324,110.37554,534.36,NaN,0.0,10.374194,,18 / 36,894,2020-09-27 05:39:19:729
3.2034,-1.3838,9.2883,2.629,-1.2974,9.3582,0.7594,-0.0379,-0.1889,38.0,39.69,24.41,1.68,303.16,7.38,-12.82,2.0,33.228,-7.760324,110.37554,534.36,NaN,0.0,10.374194,,18 / 36,905,2020-09-27 05:39:19:740
3.2034,-1.3838,9.2883,2.629,-1.2974,9.3582,0.7594,-0.0379,-0.1889,38.0,39.69,24.41,1.68,303.16,7.38,-12.82,2.0,33.228,-7.760324,110.37554,534.36,NaN,0.0,10.374194,,18 / 36,915,2020-09-27 05:39:19:750
3.2034,-1.3838,9.2883,2.629,-1.2974,9.3582,0.7594,-0.0379,-0.1889,38.0,39.69,24.41,1.68,303.16,7.38,-12.82,2.0,33.228,-7.760324,110.37554,534.36,NaN,0.0,10.374194,,18 / 36,925,2020-09-27 05:39:19:760
3.2034,-1.3838,9.2883,2.629,-1.2974,9.3582,0.7594,-0.0379,-0.1889,38.0,42.84,22.64,1.86,301.04,7.6,-15.69,2.0,33.228,-7.760324,110.37554,534.36,NaN,0.0,10.374194,,18 / 36,935,2020-09-27 05:39:19:770
3.2034,-1.3838,9.2883,2.629,-1.2974,9.3582,0.7594,-0.0379,-0.1889,38.0,42.84,22.64,1.86,301.04,7.6,-15.69,2.0,33.228,-7.760324,110.37554,534.36,NaN,0.0,10.374194,,18 / 36,945,2020-09-27 05:39:19:780
3.4285,-1.4174,9.3075,2.629,-1.2974,9.3582,0.7594,-0.0379,-0.1889,38.0,42.84,22.64,1.86,301.04,7.6,-15.69,2.0,33.228,-7.760324,110.37554,534.36,NaN,0.0,10.374194,,18 / 36,955,2020-09-27 05:39:19:790
3.4285,-1.4174,9.3075,2.629,-1.2974,9.3582,0.7594,-0.0379,-0.1889,38.0,42.84,22.64,1.86,301.04,7.6,-15.69,2.0,33.228,-7.760324,110.37554,534.36,NaN,0.0,10.374194,,18 / 36,965,2020-09-27 05:39:19:800
3.4285,-1.4174,9.3075,2.629,-1.2974,9.3582,0.7594,-0.0379,-0.1889,38.0,42.84,22.64,1.86,301.04,7.6,-15.69,2.0,33.228,-7.760324,110.37554,534.36,NaN,0.0,10.374194,,18 / 36,975,2020-09-27 05:39:19:810
3.4285,-1.4174,9.3075,2.629,-1.2974,9.3582,0.7594,-0.0379,-0.1889,38.0,42.84,22.64,1.86,301.04,7.6,-15.69,2.0,33.228,-7.760324,110.37554,534.36,NaN,0.0,10.374194,,18 / 36,985,2020-09-27 05:39:19:820
3.4285,-1.4174,9.3075,2.629,-1.2974,9.3582,0.7594,-0.0379,-0.1889,38.0,42.84,22.64,1.86,301.04,7.6,-15.69,2.0,33.228,-7.760324,110.37554,534.36,NaN,0.0,10.374194,,18 / 36,995,2020-09-27 05:39:19:830
3.4285,-1.4174,9.3075,2.629,-1.2974,9.3582,0.7594,-0.0379,-0.1889,38.0,42.84,22.64,1.86,301.04,7.6,-15.69,2.0,33.228,-7.760324,110.37554,534.36,NaN,0.0,10.374194,,18 / 36,1005,2020-09-27 05:39:19:840
3.4285,-1.4174,9.3075,2.9934,-1.3214,9.2447,0.6787,-0.0527,-0.2301,38.0,42.84,22.64,1.86,301.04,7.6,-15.69,2.0,33.228,-7.760324,110.37554,534.36,NaN,0.0,10.374194,,18 / 36,1014,2020-09-27 05:39:19:849
3.4285,-1.4174,9.3075,2.9934,-1.3214,9.2447,0.6787,-0.0527,-0.2301,38.0,42.84,22.64,1.86,301.04,7.6,-15.69,2.0,33.228,-7.760324,110.37554,534.36,NaN,0.0,10.374194,,18 / 36,1025,2020-09-27 05:39:19:860
3.4285,-1.4174,9.3075,2.9934,-1.3214,9.2447,0.6787,-0.0527,-0.2301,38.0,42.84,22.64,1.86,301.04,7.6,-15.69,2.0,33.228,-7.760324,110.37554,534.36,NaN,0.0,10.374194,,18 / 36,1036,2020-09-27 05:39:19:871
3.4285,-1.4174,9.3075,2.9934,-1.3214,9.2447,0.6787,-0.0527,-0.2301,38.0,42.84,22.64,1.86,301.04,7.6,-15.69,2.0,33.228,-7.760324,110.37554,534.36,NaN,0.0,10.374194,,18 / 36,1045,2020-09-27 05:39:19:880
3.4285,-1.4174,9.3075,2.9934,-1.3214,9.2447,0.6787,-0.0527,-0.2301,38.0,42.84,22.64,1.86,301.04,7.6,-15.69,2.0,33.228,-7.760325,110.37555,539.93,NaN,0.0,10.374194,,18 / 36,1055,2020-09-27 05:39:19:890
3.4285,-1.4174,9.3075,2.9934,-1.3214,9.2447,0.6787,-0.0527,-0.2301,38.0,42.84,22.64,1.86,301.04,7.6,-15.69,2.0,33.228,-7.760325,110.37555,539.93,NaN,0.0,10.374194,,18 / 36,1067,2020-09-27 05:39:19:902
3.4381,-1.3838,9.068,2.9934,-1.3214,9.2447,0.6787,-0.0527,-0.2301,38.0,42.84,22.64,1.86,301.04,7.6,-15.69,2.0,33.228,-7.760325,110.37555,539.93,NaN,0.0,10.374194,,18 / 36,1074,2020-09-27 05:39:19:909
3.4381,-1.3838,9.068,2.9934,-1.3214,9.2447,0.6787,-0.0527,-0.2301,38.0,43.05,20.44,-0.76,297.52,7.74,-17.94,2.0,33.228,-7.760325,110.37555,539.93,NaN,0.0,10.374194,,18 / 36,1085,2020-09-27 05:39:19:920
3.4381,-1.3838,9.068,2.9934,-1.3214,9.2447,0.6787,-0.0527,-0.2301,38.0,43.05,20.44,-0.76,297.52,7.74,-17.94,2.0,33.228,-7.760325,110.37555,539.93,NaN,0.0,10.374194,,18 / 36,1095,2020-09-27 05:39:19:930
3.4381,-1.3838,9.068,2.9934,-1.3214,9.2447,0.6787,-0.0527,-0.2301,38.0,43.05,20.44,-0.76,297.52,7.74,-17.94,2.0,33.228,-7.760325,110.37555,539.93,NaN,0.0,10.374194,,18 / 36,1105,2020-09-27 05:39:19:940
3.4381,-1.3838,9.068,2.9934,-1.3214,9.2447,0.6787,-0.0527,-0.2301,38.0,43.05,20.44,-0.76,297.52,7.74,-17.94,2.0,33.228,-7.760325,110.37555,539.93,NaN,0.0,10.374194,,18 / 36,1114,2020-09-27 05:39:19:949
3.4381,-1.3838,9.068,3.2363,-1.3468,9.1587,0.4445,-0.0695,-0.2344,38.0,43.05,20.44,-0.76,297.52,7.74,-17.94,2.0,31.637,-7.760325,110.37555,539.93,NaN,0.0,10.374194,,18 / 36,1125,2020-09-27 05:39:19:960
3.4381,-1.3838,9.068,3.2363,-1.3468,9.1587,0.4445,-0.0695,-0.2344,38.0,43.05,20.44,-0.76,297.52,7.74,-17.94,2.0,31.637,-7.760325,110.37555,539.93,NaN,0.0,10.374194,,18 / 36,1134,2020-09-27 05:39:19:969
3.4381,-1.3838,9.068,3.2363,-1.3468,9.1587,0.4445,-0.0695,-0.2344,38.0,43.05,20.44,-0.76,297.52,7.74,-17.94,2.0,31.637,-7.760325,110.37555,539.93,NaN,0.0,10.374194,,18 / 36,1145,2020-09-27 05:39:19:980
3.4381,-1.3838,9.068,3.2363,-1.3468,9.1587,0.4445,-0.0695,-0.2344,38.0,43.05,20.44,-0.76,297.52,7.74,-17.94,2.0,31.637,-7.760325,110.37555,539.93,NaN,0.0,10.374194,,18 / 36,1155,2020-09-27 05:39:19:990
3.4381,-1.3838,9.068,3.2363,-1.3468,9.1587,0.4445,-0.0695,-0.2344,38.0,43.05,20.44,-0.76,297.52,7.74,-17.94,2.0,31.637,-7.760325,110.37555,539.93,NaN,0.0,10.374194,,18 / 36,1165,2020-09-27 05:39:20:000
3.4381,-1.3838,9.068,3.2363,-1.3468,9.1587,0.4445,-0.0695,-0.2344,38.0,43.05,20.44,-0.76,297.52,7.74,-17.94,2.0,31.637,-7.760325,110.37555,539.93,NaN,0.0,10.374194,,18 / 36,1175,2020-09-27 05:39:20:010
3.4381,-1.3838,9.068,3.2363,-1.3468,9.1587,0.4445,-0.0695,-0.2344,38.0,43.05,20.44,-0.76,297.52,7.74,-17.94,2.0,31.637,-7.760325,110.37555,539.93,NaN,0.0,10.374194,,18 / 36,1184,2020-09-27 05:39:20:019
3.4381,-1.3838,9.068,3.2363,-1.3468,9.1587,0.4445,-0.0695,-0.2344,38.0,43.05,20.44,-0.76,297.52,7.74,-17.94,2.0,31.637,-7.760325,110.37555,539.93,NaN,0.0,10.374194,,18 / 36,1195,2020-09-27 05:39:20:030
3.8786,-1.5131,9.0393,3.2363,-1.3468,9.1587,0.4445,-0.0695,-0.2344,38.0,45.23,19.08,-2.51,295.26,7.89,-19.46,2.0,31.637,-7.760325,110.37555,539.93,NaN,0.0,10.374194,,18 / 36,1205,2020-09-27 05:39:20:040
3.8786,-1.5131,9.0393,3.2363,-1.3468,9.1587,0.4445,-0.0695,-0.2344,38.0,45.23,19.08,-2.51,295.26,7.89,-19.46,2.0,31.637,-7.760325,110.37555,539.93,NaN,0.0,10.374194,,18 / 36,1215,2020-09-27 05:39:20:050
3.8786,-1.5131,9.0393,3.2363,-1.3468,9.1587,0.4445,-0.0695,-0.2344,37.0,45.23,19.08,-2.51,295.26,7.89,-19.46,2.0,31.637,-7.760325,110.37555,539.93,NaN,0.0,10.374194,,18 / 36,1225,2020-09-27 05:39:20:060
3.8786,-1.5131,9.0393,3.2363,-1.3468,9.1587,0.4445,-0.0695,-0.2344,37.0,45.23,19.08,-2.51,295.26,7.89,-19.46,2.0,31.637,-7.760325,110.37555,539.93,NaN,0.0,10.374194,,18 / 36,1235,2020-09-27 05:39:20:070
3.8786,-1.5131,9.0393,3.2363,-1.3468,9.1587,0.4445,-0.0695,-0.2344,37.0,45.23,19.08,-2.51,295.26,7.89,-19.46,2.0,31.637,-7.760325,110.37555,539.93,NaN,0.0,10.374194,,18 / 36,1245,2020-09-27 05:39:20:080
3.8786,-1.5131,9.0393,3.2363,-1.3468,9.1587,0.4445,-0.0695,-0.2344,37.0,45.23,19.08,-2.51,295.26,7.89,-19.46,2.0,31.637,-7.760325,110.37555,539.93,NaN,0.0,10.374194,,18 / 36,1255,2020-09-27 05:39:20:090
3.8786,-1.5131,9.0393,3.2363,-1.3468,9.1587,0.4445,-0.0695,-0.2344,37.0,45.23,19.08,-2.51,295.26,7.89,-19.46,2.0,31.637,-7.760325,110.37555,539.93,NaN,0.0,10.374194,,18 / 36,1266,2020-09-27 05:39:20:101
3.8786,-1.5131,9.0393,3.2363,-1.3468,9.1587,0.4445,-0.0695,-0.2344,37.0,45.23,19.08,-2.51,295.26,7.89,-19.46,2.0,31.637,-7.760325,110.37555,539.93,NaN,0.0,10.374194,,18 / 36,1275,2020-09-27 05:39:20:110
3.8786,-1.5131,9.0393,3.6701,-1.3983,8.9858,0.63,-0.0153,-0.1399,37.0,45.23,19.08,-2.51,295.26,7.89,-19.46,2.0,31.637,-7.760325,110.37555,539.93,NaN,0.0,10.374194,,18 / 36,1285,2020-09-27 05:39:20:120
3.8786,-1.5131,9.0393,3.6701,-1.3983,8.9858,0.63,-0.0153,-0.1399,37.0,45.23,19.08,-2.51,295.26,7.89,-19.46,2.0,31.637,-7.760325,110.37555,539.93,NaN,0.0,10.374194,,18 / 36,1295,2020-09-27 05:39:20:130
3.8786,-1.5131,9.0393,3.6701,-1.3983,8.9858,0.63,-0.0153,-0.1399,37.0,45.23,19.08,-2.51,295.26,7.89,-19.46,2.0,31.637,-7.760325,110.37555,539.93,NaN,0.0,10.374194,,18 / 36,1304,2020-09-27 05:39:20:139
3.8786,-1.5131,9.0393,3.6701,-1.3983,8.9858,0.63,-0.0153,-0.1399,37.0,45.23,19.08,-2.51,295.26,7.89,-19.46,2.0,31.637,-7.760325,110.37555,539.93,NaN,0.0,10.374194,,18 / 36,1316,2020-09-27 05:39:20:151
4.5107,-1.4269,9.0489,3.6701,-1.3983,8.9858,0.63,-0.0153,-0.1399,37.0,45.23,19.08,-2.51,295.26,7.89,-19.46,2.0,31.637,-7.760325,110.37555,539.93,NaN,0.0,10.374194,,18 / 36,1325,2020-09-27 05:39:20:160
4.5107,-1.4269,9.0489,3.6701,-1.3983,8.9858,0.63,-0.0153,-0.1399,37.0,45.23,19.08,-2.51,295.26,7.89,-19.46,2.0,31.637,-7.760325,110.37555,539.93,NaN,0.0,10.374194,,18 / 36,1334,2020-09-27 05:39:20:169
4.5107,-1.4269,9.0489,3.6701,-1.3983,8.9858,0.63,-0.0153,-0.1399,37.0,45.23,19.08,-2.51,295.26,7.89,-19.46,2.0,31.637,-7.760325,110.37555,539.93,NaN,0.0,10.374194,,18 / 36,1345,2020-09-27 05:39:20:180
4.5107,-1.4269,9.0489,3.6701,-1.3983,8.9858,0.63,-0.0153,-0.1399,37.0,45.85,18.97,-2.09,295.87,8.2,-22.22,2.0,31.637,-7.760325,110.37555,539.93,NaN,0.0,10.374194,,18 / 36,1355,2020-09-27 05:39:20:190
4.5107,-1.4269,9.0489,3.6701,-1.3983,8.9858,0.63,-0.0153,-0.1399,37.0,45.85,18.97,-2.09,295.87,8.2,-22.22,2.0,31.637,-7.760325,110.37555,539.93,NaN,0.0,10.374194,,18 / 36,1365,2020-09-27 05:39:20:200
4.5107,-1.4269,9.0489,3.6701,-1.3983,8.9858,0.63,-0.0153,-0.1399,37.0,45.85,18.97,-2.09,295.87,8.2,-22.22,2.0,31.637,-7.760325,110.37555,539.93,NaN,0.0,10.374194,,18 / 36,1375,2020-09-27 05:39:20:210
4.5107,-1.4269,9.0489,3.6701,-1.3983,8.9858,0.63,-0.0153,-0.1399,37.0,45.85,18.97,-2.09,295.87,8.2,-22.22,2.0,31.637,-7.760325,110.37555,539.93,NaN,0.0,10.374194,,18 / 36,1385,2020-09-27 05:39:20:220
4.5107,-1.4269,9.0489,3.9138,-1.4289,8.8775,0.3493,-0.0751,-0.2274,37.0,45.85,18.97,-2.09,295.87,8.2,-22.22,2.0,31.637,-7.760325,110.37555,539.93,NaN,0.0,10.374194,,18 / 36,1395,2020-09-27 05:39:20:230
4.5107,-1.4269,9.0489,3.9138,-1.4289,8.8775,0.3493,-0.0751,-0.2274,37.0,45.85,18.97,-2.09,295.87,8.2,-22.22,2.0,31.637,-7.760325,110.37555,539.93,NaN,0.0,10.374194,,18 / 36,1404,2020-09-27 05:39:20:239
4.5107,-1.4269,9.0489,3.9138,-1.4289,8.8775,0.3493,-0.0751,-0.2274,37.0,45.85,18.97,-2.09,295.87,8.2,-22.22,2.0,31.637,-7.760325,110.37555,539.93,NaN,0.0,10.374194,,18 / 36,1415,2020-09-27 05:39:20:250
4.5107,-1.4269,9.0489,3.9138,-1.4289,8.8775,0.3493,-0.0751,-0.2274,37.0,45.85,18.97,-2.09,295.87,8.2,-22.22,2.0,31.683,-7.760325,110.37555,539.93,NaN,0.0,10.374194,,18 / 36,1425,2020-09-27 05:39:20:260
4.5107,-1.4269,9.0489,3.9138,-1.4289,8.8775,0.3493,-0.0751,-0.2274,37.0,45.85,18.97,-2.09,295.87,8.2,-22.22,2.0,31.683,-7.760325,110.37555,539.93,NaN,0.0,10.374194,,18 / 36,1435,2020-09-27 05:39:20:270
4.5107,-1.4269,9.0489,3.9138,-1.4289,8.8775,0.3493,-0.0751,-0.2274,37.0,45.85,18.97,-2.09,295.87,8.2,-22.22,2.0,31.683,-7.760325,110.37555,539.93,NaN,0.0,10.374194,,18 / 36,1445,2020-09-27 05:39:20:280
4.5825,-1.5083,8.5461,3.9138,-1.4289,8.8775,0.3493,-0.0751,-0.2274,37.0,45.85,18.97,-2.09,295.87,8.2,-22.22,2.0,31.683,-7.760325,110.37555,539.93,NaN,0.0,10.374194,,18 / 36,1455,2020-09-27 05:39:20:290
4.5825,-1.5083,8.5461,3.9138,-1.4289,8.8775,0.3493,-0.0751,-0.2274,37.0,45.85,18.97,-2.09,295.87,8.2,-22.22,2.0,31.683,-7.760325,110.37555,539.93,NaN,0.0,10.374194,,18 / 36,1465,2020-09-27 05:39:20:300
4.5825,-1.5083,8.5461,3.9138,-1.4289,8.8775,0.3493,-0.0751,-0.2274,37.0,46.65,16.37,-3.32,292.36,8.38,-23.79,2.0,31.683,-7.760325,110.37555,539.93,NaN,0.0,10.374194,,18 / 36,1475,2020-09-27 05:39:20:310
4.5825,-1.5083,8.5461,3.9138,-1.4289,8.8775,0.3493,-0.0751,-0.2274,34.0,46.65,16.37,-3.32,292.36,8.38,-23.79,2.0,31.683,-7.760325,110.37555,539.93,NaN,0.0,10.374194,,18 / 36,1485,2020-09-27 05:39:20:320
4.5825,-1.5083,8.5461,3.9138,-1.4289,8.8775,0.3493,-0.0751,-0.2274,34.0,46.65,16.37,-3.32,292.36,8.38,-23.79,2.0,31.683,-7.760325,110.37555,539.93,NaN,0.0,10.374194,,18 / 36,1495,2020-09-27 05:39:20:330
4.5825,-1.5083,8.5461,3.9138,-1.4289,8.8775,0.3493,-0.0751,-0.2274,34.0,46.65,16.37,-3.32,292.36,8.38,-23.79,2.0,31.683,-7.760325,110.37555,539.93,NaN,0.0,10.374194,,18 / 36,1505,2020-09-27 05:39:20:340
4.5825,-1.5083,8.5461,3.9138,-1.4289,8.8775,0.3493,-0.0751,-0.2274,34.0,46.65,16.37,-3.32,292.36,8.38,-23.79,2.0,31.683,-7.760325,110.37555,539.93,NaN,0.0,10.374194,,18 / 36,1524,2020-09-27 05:39:20:359
4.5825,-1.5083,8.5461,3.9138,-1.4289,8.8775,0.3493,-0.0751,-0.2274,34.0,46.65,16.37,-3.32,292.36,8.38,-23.79,2.0,31.683,-7.760325,110.37555,539.93,NaN,0.0,10.374194,,18 / 36,1527,2020-09-27 05:39:20:362
4.5825,-1.5083,8.5461,3.9138,-1.4289,8.8775,0.3493,-0.0751,-0.2274,34.0,46.65,16.37,-3.32,292.36,8.38,-23.79,2.0,31.683,-7.760325,110.37555,539.93,NaN,0.0,10.374194,,18 / 36,1535,2020-09-27 05:39:20:370
4.5825,-1.5083,8.5461,3.9138,-1.4289,8.8775,0.3493,-0.0751,-0.2274,34.0,46.65,16.37,-3.32,292.36,8.38,-23.79,2.0,31.683,-7.760325,110.37555,539.93,NaN,0.0,10.374194,,18 / 36,1545,2020-09-27 05:39:20:380
4.4245,-1.4988,9.0106,4.1284,-1.4452,8.7771,0.2042,-0.0396,-0.1198,34.0,46.65,16.37,-3.32,292.36,8.38,-23.79,2.0,31.683,-7.760325,110.37555,539.93,NaN,0.0,10.374194,,18 / 36,1557,2020-09-27 05:39:20:392
4.4245,-1.4988,9.0106,4.1284,-1.4452,8.7771,0.2042,-0.0396,-0.1198,34.0,46.65,16.37,-3.32,292.36,8.38,-23.79,2.0,31.683,-7.760325,110.37555,539.93,NaN,0.0,10.374194,,18 / 36,1567,2020-09-27 05:39:20:402
4.4245,-1.4988,9.0106,4.1284,-1.4452,8.7771,0.2042,-0.0396,-0.1198,34.0,46.65,16.37,-3.32,292.36,8.38,-23.79,2.0,31.683,-7.760325,110.37555,539.93,NaN,0.0,10.374194,,18 / 36,1575,2020-09-27 05:39:20:410
4.4245,-1.4988,9.0106,4.1284,-1.4452,8.7771,0.2042,-0.0396,-0.1198,34.0,46.65,16.37,-3.32,292.36,8.38,-23.79,2.0,31.683,-7.760325,110.37555,539.93,NaN,0.0,10.374194,,18 / 36,1585,2020-09-27 05:39:20:420
4.4245,-1.4988,9.0106,4.1284,-1.4452,8.7771,0.2042,-0.0396,-0.1198,34.0,46.65,16.37,-3.32,292.36,8.38,-23.79,2.0,31.683,-7.760325,110.37555,539.93,NaN,0.0,10.374194,,18 / 36,1594,2020-09-27 05:39:20:429
4.4245,-1.4988,9.0106,4.1284,-1.4452,8.7771,0.2042,-0.0396,-0.1198,34.0,46.65,16.37,-3.32,292.36,8.38,-23.79,2.0,31.683,-7.760325,110.37555,539.93,NaN,0.0,10.374194,,18 / 36,1605,2020-09-27 05:39:20:440
4.4245,-1.4988,9.0106,4.1284,-1.4452,8.7771,0.2042,-0.0396,-0.1198,34.0,46.65,16.37,-3.32,292.36,8.38,-23.79,2.0,31.683,-7.760325,110.37555,539.93,NaN,0.0,10.374194,,18 / 36,1615,2020-09-27 05:39:20:450
4.4245,-1.4988,9.0106,4.1284,-1.4452,8.7771,0.2042,-0.0396,-0.1198,34.0,46.65,16.37,-3.32,292.36,8.38,-23.79,2.0,31.683,-7.760325,110.37555,539.93,NaN,0.0,10.374194,,18 / 36,1625,2020-09-27 05:39:20:460
4.4676,-1.3886,8.5557,4.1284,-1.4452,8.7771,0.2042,-0.0396,-0.1198,34.0,48.08,15.46,-4.46,290.99,8.47,-25.19,2.0,31.683,-7.760325,110.37555,539.93,NaN,0.0,10.374194,,18 / 36,1635,2020-09-27 05:39:20:470
4.4676,-1.3886,8.5557,4.1284,-1.4452,8.7771,0.2042,-0.0396,-0.1198,34.0,48.08,15.46,-4.46,290.99,8.47,-25.19,2.0,31.683,-7.760325,110.37555,539.93,NaN,0.0,10.374194,,18 / 36,1645,2020-09-27 05:39:20:480
4.4676,-1.3886,8.5557,4.1284,-1.4452,8.7771,0.2042,-0.0396,-0.1198,34.0,48.08,15.46,-4.46,290.99,8.47,-25.19,2.0,31.683,-7.760325,110.37555,539.93,NaN,0.0,10.374194,,18 / 36,1654,2020-09-27 05:39:20:489
4.4676,-1.3886,8.5557,4.1284,-1.4452,8.7771,0.2042,-0.0396,-0.1198,34.0,48.08,15.46,-4.46,290.99,8.47,-25.19,2.0,31.683,-7.760325,110.37555,539.93,NaN,0.0,10.374194,,18 / 36,1669,2020-09-27 05:39:20:504
4.4676,-1.3886,8.5557,4.1284,-1.4452,8.7771,0.2042,-0.0396,-0.1198,34.0,48.08,15.46,-4.46,290.99,8.47,-25.19,2.0,31.683,-7.760325,110.37555,539.93,NaN,0.0,10.374194,,18 / 36,1675,2020-09-27 05:39:20:510
4.4676,-1.3886,8.5557,4.3144,-1.3728,8.699,0.4029,0.1254,-0.291,34.0,48.08,15.46,-4.46,290.99,8.47,-25.19,2.0,31.683,-7.760325,110.37555,539.93,NaN,0.0,10.374194,,18 / 36,1711,2020-09-27 05:39:20:546
4.4676,-1.3886,8.5557,4.3144,-1.3728,8.699,0.4029,0.1254,-0.291,34.0,48.08,15.46,-4.46,290.99,8.47,-25.19,2.0,31.683,-7.760325,110.37555,539.93,NaN,0.0,10.374194,,18 / 36,1712,2020-09-27 05:39:20:547
4.4676,-1.3886,8.5557,4.3144,-1.3728,8.699,0.4029,0.1254,-0.291,34.0,48.08,15.46,-4.46,290.99,8.47,-25.19,2.0,31.683,-7.760325,110.37555,539.93,NaN,0.0,10.374194,,18 / 36,1774,2020-09-27 05:39:20:609
4.4676,-1.3886,8.5557,4.3144,-1.3728,8.699,0.4029,0.1254,-0.291,34.0,48.08,15.46,-4.46,290.99,8.47,-25.19,2.0,31.683,-7.760325,110.37555,539.93,NaN,0.0,10.374194,,18 / 36,1775,2020-09-27 05:39:20:610
4.4676,-1.3886,8.5557,4.3144,-1.3728,8.699,0.4029,0.1254,-0.291,34.0,48.08,15.46,-4.46,290.99,8.47,-25.19,2.0,31.683,-7.760325,110.37555,539.93,NaN,0.0,10.374194,,18 / 36,1775,2020-09-27 05:39:20:610
4.4676,-1.3886,8.5557,4.3144,-1.3728,8.699,0.4029,0.1254,-0.291,34.0,48.08,15.46,-4.46,290.99,8.47,-25.19,2.0,31.683,-7.760325,110.37555,539.93,NaN,0.0,10.374194,,18 / 36,1776,2020-09-27 05:39:20:611
4.4676,-1.3886,8.5557,4.3144,-1.3728,8.699,0.4029,0.1254,-0.291,34.0,48.08,15.46,-4.46,290.99,8.47,-25.19,2.0,31.683,-7.760325,110.37555,539.93,NaN,0.0,10.374194,,18 / 36,1801,2020-09-27 05:39:20:636
4.4676,-1.3886,8.5557,4.3144,-1.3728,8.699,0.4029,0.1254,-0.291,34.0,48.08,15.46,-4.46,290.99,8.47,-25.19,2.0,31.683,-7.760325,110.37555,539.93,NaN,0.0,10.374194,,18 / 36,1802,2020-09-27 05:39:20:637
4.4676,-1.3886,8.5557,4.3144,-1.3728,8.699,0.4029,0.1254,-0.291,34.0,48.08,15.46,-4.46,290.99,8.47,-25.19,2.0,31.683,-7.760325,110.37555,539.93,NaN,0.0,10.374194,,18 / 36,1802,2020-09-27 05:39:20:637
4.4676,-1.3886,8.5557,4.3144,-1.3728,8.699,0.4029,0.1254,-0.291,34.0,48.08,15.46,-4.46,290.99,8.47,-25.19,2.0,31.683,-7.760325,110.37555,539.93,NaN,0.0,10.374194,,18 / 36,1802,2020-09-27 05:39:20:637
4.4676,-1.3886,8.5557,4.3144,-1.3728,8.699,0.4029,0.1254,-0.291,34.0,48.08,15.46,-4.46,290.99,8.47,-25.19,2.0,31.683,-7.760325,110.37555,539.93,NaN,0.0,10.374194,,18 / 36,1803,2020-09-27 05:39:20:638
4.4676,-1.3886,8.5557,4.3144,-1.3728,8.699,0.4029,0.1254,-0.291,34.0,48.08,15.46,-4.46,290.99,8.47,-25.19,2.0,31.683,-7.760325,110.37555,539.93,NaN,0.0,10.374194,,18 / 36,1804,2020-09-27 05:39:20:639
4.4676,-1.3886,8.5557,4.3144,-1.3728,8.699,0.4029,0.1254,-0.291,34.0,48.08,15.46,-4.46,290.99,8.47,-25.19,2.0,31.683,-7.760325,110.37555,539.93,NaN,0.0,10.374194,,18 / 36,1804,2020-09-27 05:39:20:639
4.4676,-1.3886,8.5557,4.3144,-1.3728,8.699,0.4029,0.1254,-0.291,34.0,48.08,15.46,-4.46,290.99,8.47,-25.19,2.0,31.683,-7.760325,110.37555,539.93,NaN,0.0,10.374194,,18 / 36,1854,2020-09-27 05:39:20:689
4.4676,-1.3886,8.5557,4.3144,-1.3728,8.699,0.4029,0.1254,-0.291,34.0,48.08,15.46,-4.46,290.99,8.47,-25.19,2.0,31.683,-7.760325,110.37555,539.93,NaN,0.0,10.374194,,18 / 36,1859,2020-09-27 05:39:20:694
4.4676,-1.3886,8.5557,4.3144,-1.3728,8.699,0.4029,0.1254,-0.291,34.0,48.08,15.46,-4.46,290.99,8.47,-25.19,2.0,31.683,-7.760325,110.37555,539.93,NaN,0.0,10.374194,,18 / 36,1860,2020-09-27 05:39:20:695
4.4676,-1.3886,8.5557,4.3144,-1.3728,8.699,0.4029,0.1254,-0.291,34.0,48.08,15.46,-4.46,290.99,8.47,-25.19,2.0,31.683,-7.760325,110.37555,539.93,NaN,0.0,10.374194,,18 / 36,1860,2020-09-27 05:39:20:695
4.4676,-1.3886,8.5557,4.3144,-1.3728,8.699,0.4029,0.1254,-0.291,34.0,48.08,15.46,-4.46,290.99,8.47,-25.19,2.0,31.683,-7.760325,110.37555,539.93,NaN,0.0,10.374194,,18 / 36,1861,2020-09-27 05:39:20:696
4.4676,-1.3886,8.5557,4.3144,-1.3728,8.699,0.4029,0.1254,-0.291,34.0,48.08,15.46,-4.46,290.99,8.47,-25.19,2.0,31.683,-7.760325,110.37555,539.93,NaN,0.0,10.374194,,18 / 36,1877,2020-09-27 05:39:20:712
4.4676,-1.3886,8.5557,4.3144,-1.3728,8.699,0.4029,0.1254,-0.291,34.0,48.08,15.46,-4.46,290.99,8.47,-25.19,2.0,31.683,-7.760325,110.37555,539.93,NaN,0.0,10.374194,,18 / 36,1878,2020-09-27 05:39:20:713
4.4676,-1.3886,8.5557,4.3144,-1.3728,8.699,0.4029,0.1254,-0.291,34.0,48.08,15.46,-4.46,290.99,8.47,-25.19,2.0,31.683,-7.760325,110.37555,539.93,NaN,0.0,10.374194,,18 / 36,1885,2020-09-27 05:39:20:720
4.4676,-1.3886,8.5557,4.3144,-1.3728,8.699,0.4029,0.1254,-0.291,34.0,48.08,15.46,-4.46,290.99,8.47,-25.19,2.0,31.683,-7.760325,110.37555,539.93,NaN,0.0,10.374194,,18 / 36,1896,2020-09-27 05:39:20:731
4.4676,-1.3886,8.5557,4.3144,-1.3728,8.699,0.4029,0.1254,-0.291,34.0,48.08,15.46,-4.46,290.99,8.47,-25.19,2.0,31.683,-7.760325,110.37555,539.93,NaN,0.0,10.374194,,18 / 36,1905,2020-09-27 05:39:20:740
4.4676,-1.3886,8.5557,4.3144,-1.3728,8.699,0.4029,0.1254,-0.291,34.0,48.08,15.46,-4.46,290.99,8.47,-25.19,2.0,31.683,-7.760325,110.37555,539.93,NaN,0.0,10.374194,,18 / 36,1915,2020-09-27 05:39:20:750
4.4676,-1.3886,8.5557,4.3144,-1.3728,8.699,0.4029,0.1254,-0.291,34.0,48.08,15.46,-4.46,290.99,8.47,-25.19,2.0,31.683,-7.760325,110.37555,539.93,NaN,0.0,10.374194,,18 / 36,1927,2020-09-27 05:39:20:762
4.4676,-1.3886,8.5557,4.3144,-1.3728,8.699,0.4029,0.1254,-0.291,34.0,48.08,15.46,-4.46,290.99,8.47,-25.19,2.0,31.683,-7.760325,110.37555,539.93,NaN,0.0,10.374194,,18 / 36,1937,2020-09-27 05:39:20:772
4.4676,-1.3886,8.5557,4.3144,-1.3728,8.699,0.4029,0.1254,-0.291,34.0,48.08,15.46,-4.46,290.99,8.47,-25.19,2.0,31.683,-7.760325,110.37555,539.93,NaN,0.0,10.374194,,18 / 36,1948,2020-09-27 05:39:20:783
4.4676,-1.3886,8.5557,4.3144,-1.3728,8.699,0.4029,0.1254,-0.291,34.0,48.08,15.46,-4.46,290.99,8.47,-25.19,2.0,31.683,-7.760325,110.37555,539.93,NaN,0.0,10.374194,,18 / 36,1955,2020-09-27 05:39:20:790
4.4676,-1.3886,8.5557,4.3144,-1.3728,8.699,0.4029,0.1254,-0.291,34.0,48.08,15.46,-4.46,290.99,8.47,-25.19,2.0,31.683,-7.760325,110.37555,539.93,NaN,0.0,10.374194,,18 / 36,1964,2020-09-27 05:39:20:799
4.4676,-1.3886,8.5557,4.3144,-1.3728,8.699,0.4029,0.1254,-0.291,34.0,48.08,15.46,-4.46,290.99,8.47,-25.19,2.0,31.683,-7.760325,110.37555,539.93,NaN,0.0,10.374194,,18 / 36,1975,2020-09-27 05:39:20:810
4.4676,-1.3886,8.5557,4.3144,-1.3728,8.699,0.4029,0.1254,-0.291,34.0,48.08,15.46,-4.46,290.99,8.47,-25.19,2.0,31.683,-7.760325,110.37555,539.93,NaN,0.0,10.374194,,18 / 36,1985,2020-09-27 05:39:20:820
4.4676,-1.3886,8.5557,4.3144,-1.3728,8.699,0.4029,0.1254,-0.291,34.0,48.08,15.46,-4.46,290.99,8.47,-25.19,2.0,31.683,-7.760325,110.37555,539.93,NaN,0.0,10.374194,,18 / 36,1995,2020-09-27 05:39:20:830
4.4676,-1.3886,8.5557,4.3144,-1.3728,8.699,0.4029,0.1254,-0.291,34.0,48.08,15.46,-4.46,290.99,8.47,-25.19,2.0,31.683,-7.760325,110.37555,539.93,NaN,0.0,10.374194,,18 / 36,2005,2020-09-27 05:39:20:840
4.4676,-1.3886,8.5557,4.3144,-1.3728,8.699,0.4029,0.1254,-0.291,34.0,48.08,15.46,-4.46,290.99,8.47,-25.19,2.0,31.683,-7.760325,110.37555,539.93,NaN,0.0,10.374194,,18 / 36,2015,2020-09-27 05:39:20:850
4.4676,-1.3886,8.5557,4.3144,-1.3728,8.699,0.4029,0.1254,-0.291,34.0,48.08,15.46,-4.46,290.99,8.47,-25.19,2.0,31.683,-7.760325,110.37555,539.93,NaN,0.0,10.374194,,18 / 36,2025,2020-09-27 05:39:20:860
4.4676,-1.3886,8.5557,4.3144,-1.3728,8.699,0.4029,0.1254,-0.291,34.0,48.08,15.46,-4.46,290.99,8.47,-25.19,2.0,31.683,-7.760325,110.37555,539.93,NaN,0.0,10.374194,,18 / 36,2035,2020-09-27 05:39:20:870
4.4676,-1.3886,8.5557,4.3144,-1.3728,8.699,0.4029,0.1254,-0.291,34.0,48.08,15.46,-4.46,290.99,8.47,-25.19,2.0,31.683,-7.760325,110.37555,539.93,NaN,0.0,10.374194,,18 / 36,2045,2020-09-27 05:39:20:880
4.4676,-1.3886,8.5557,4.3144,-1.3728,8.699,0.4029,0.1254,-0.291,34.0,48.08,15.46,-4.46,290.99,8.47,-25.19,2.0,31.683,-7.760325,110.37555,539.93,NaN,0.0,10.374194,,18 / 36,2055,2020-09-27 05:39:20:890
4.4676,-1.3886,8.5557,4.3144,-1.3728,8.699,0.4029,0.1254,-0.291,34.0,48.08,15.46,-4.46,290.99,8.47,-25.19,2.0,31.683,-7.760325,110.37555,539.93,NaN,0.0,10.374194,,18 / 36,2065,2020-09-27 05:39:20:900
4.4676,-1.3886,8.5557,4.3144,-1.3728,8.699,0.4029,0.1254,-0.291,34.0,48.08,15.46,-4.46,290.99,8.47,-25.19,2.0,31.683,-7.760325,110.37555,539.93,NaN,0.0,10.374194,,18 / 36,2075,2020-09-27 05:39:20:910
4.4676,-1.3886,8.5557,4.3144,-1.3728,8.699,0.4029,0.1254,-0.291,34.0,48.08,15.46,-4.46,290.99,8.47,-25.19,2.0,31.683,-7.760325,110.37555,539.93,NaN,0.0,10.374194,,18 / 36,2084,2020-09-27 05:39:20:919
4.4676,-1.3886,8.5557,4.3144,-1.3728,8.699,0.4029,0.1254,-0.291,34.0,48.08,15.46,-4.46,290.99,8.47,-25.19,2.0,31.683,-7.760325,110.37555,539.93,NaN,0.0,10.374194,,18 / 36,2095,2020-09-27 05:39:20:930
4.4676,-1.3886,8.5557,4.3144,-1.3728,8.699,0.4029,0.1254,-0.291,34.0,48.08,15.46,-4.46,290.99,8.47,-25.19,2.0,31.683,-7.760325,110.37555,539.93,NaN,0.0,10.374194,,18 / 36,2105,2020-09-27 05:39:20:940
4.4676,-1.3886,8.5557,4.3144,-1.3728,8.699,0.4029,0.1254,-0.291,34.0,48.08,15.46,-4.46,290.99,8.47,-25.19,2.0,31.683,-7.760325,110.37555,539.93,NaN,0.0,10.374194,,18 / 36,2114,2020-09-27 05:39:20:949
4.4676,-1.3886,8.5557,4.3144,-1.3728,8.699,0.4029,0.1254,-0.291,34.0,48.08,15.46,-4.46,290.99,8.47,-25.19,2.0,31.683,-7.760325,110.37555,539.93,NaN,0.0,10.374194,,18 / 36,2125,2020-09-27 05:39:20:960
4.4676,-1.3886,8.5557,4.3144,-1.3728,8.699,0.4029,0.1254,-0.291,34.0,48.08,15.46,-4.46,290.99,8.47,-25.19,2.0,31.683,-7.760325,110.37555,539.93,NaN,0.0,10.374194,,18 / 36,2135,2020-09-27 05:39:20:970
5.047,-1.336,8.096,4.4069,-1.3457,8.6567,0.2836,0.1087,-0.2337,33.0,49.34,15.15,-5.77,290.32,7.89,-26.98,2.0,31.683,-7.760325,110.37555,539.93,NaN,0.0,10.374194,,18 / 36,2145,2020-09-27 05:39:20:980
5.047,-1.336,8.096,4.4069,-1.3457,8.6567,0.2836,0.1087,-0.2337,33.0,49.34,15.15,-5.77,290.32,7.89,-26.98,2.0,31.683,-7.760325,110.37555,539.93,NaN,0.0,10.374194,,18 / 36,2155,2020-09-27 05:39:20:990
5.047,-1.336,8.096,4.4069,-1.3457,8.6567,0.2836,0.1087,-0.2337,33.0,49.34,15.15,-5.77,290.32,7.89,-26.98,2.0,31.683,-7.760325,110.37555,539.93,NaN,0.0,10.374194,,18 / 36,2166,2020-09-27 05:39:21:001
5.047,-1.336,8.096,4.4069,-1.3457,8.6567,0.2836,0.1087,-0.2337,33.0,49.34,15.15,-5.77,290.32,7.89,-26.98,2.0,31.683,-7.760325,110.37555,539.93,NaN,0.0,10.374194,,18 / 36,2177,2020-09-27 05:39:21:012
5.047,-1.336,8.096,4.4069,-1.3457,8.6567,0.2836,0.1087,-0.2337,33.0,49.34,15.15,-5.77,290.32,7.89,-26.98,2.0,31.683,-7.760325,110.37555,539.93,NaN,0.0,10.374194,,18 / 36,2185,2020-09-27 05:39:21:020
5.047,-1.336,8.096,4.4069,-1.3457,8.6567,0.2836,0.1087,-0.2337,33.0,49.34,15.15,-5.77,290.32,7.89,-26.98,2.0,31.683,-7.760325,110.37555,539.93,NaN,0.0,10.374194,,18 / 36,2195,2020-09-27 05:39:21:030
5.047,-1.336,8.096,4.4069,-1.3457,8.6567,0.2836,0.1087,-0.2337,33.0,49.34,15.15,-5.77,290.32,7.89,-26.98,2.0,31.683,-7.760325,110.37555,539.93,NaN,0.0,10.374194,,18 / 36,2206,2020-09-27 05:39:21:041
5.047,-1.336,8.096,4.4069,-1.3457,8.6567,0.2836,0.1087,-0.2337,33.0,49.34,15.15,-5.77,290.32,7.89,-26.98,2.0,31.683,-7.760325,110.37555,539.93,NaN,0.0,10.374194,,18 / 36,2214,2020-09-27 05:39:21:049
5.047,-1.336,8.096,4.4069,-1.3457,8.6567,0.2836,0.1087,-0.2337,33.0,49.34,15.15,-5.77,290.32,7.89,-26.98,2.0,31.683,-7.760325,110.37555,539.93,NaN,0.0,10.374194,,18 / 36,2225,2020-09-27 05:39:21:060
5.047,-1.336,8.096,4.4069,-1.3457,8.6567,0.2836,0.1087,-0.2337,33.0,49.34,15.15,-5.77,290.32,7.89,-26.98,2.0,31.683,-7.760325,110.37555,539.93,NaN,0.0,10.374194,,18 / 36,2235,2020-09-27 05:39:21:070
5.047,-1.336,8.096,4.4069,-1.3457,8.6567,0.2836,0.1087,-0.2337,33.0,49.34,15.15,-5.77,290.32,7.89,-26.98,2.0,31.683,-7.760325,110.37555,539.93,NaN,0.0,10.374194,,18 / 36,2245,2020-09-27 05:39:21:080
5.047,-1.336,8.096,4.4069,-1.3457,8.6567,0.2836,0.1087,-0.2337,33.0,49.34,15.15,-5.77,290.32,7.89,-26.98,2.0,31.683,-7.760325,110.37555,539.93,NaN,0.0,10.374194,,18 / 36,2255,2020-09-27 05:39:21:090
5.047,-1.336,8.096,4.4069,-1.3457,8.6567,0.2836,0.1087,-0.2337,33.0,49.34,15.15,-5.77,290.32,7.89,-26.98,2.0,31.683,-7.760325,110.37555,539.93,NaN,0.0,10.374194,,18 / 36,2264,2020-09-27 05:39:21:099
5.047,-1.336,8.096,4.4069,-1.3457,8.6567,0.2836,0.1087,-0.2337,33.0,49.34,15.15,-5.77,290.32,7.89,-26.98,2.0,31.683,-7.760325,110.37555,539.93,NaN,0.0,10.374194,,18 / 36,2275,2020-09-27 05:39:21:110
5.047,-1.336,8.096,4.4069,-1.3457,8.6567,0.2836,0.1087,-0.2337,33.0,49.34,15.15,-5.77,290.32,7.89,-26.98,2.0,31.683,-7.760325,110.37555,539.93,NaN,0.0,10.374194,,18 / 36,2286,2020-09-27 05:39:21:121
5.047,-1.336,8.096,4.4069,-1.3457,8.6567,0.2836,0.1087,-0.2337,33.0,49.34,15.15,-5.77,290.32,7.89,-26.98,2.0,31.683,-7.760325,110.37555,539.93,NaN,0.0,10.374194,,18 / 36,2295,2020-09-27 05:39:21:130
5.047,-1.336,8.096,4.4069,-1.3457,8.6567,0.2836,0.1087,-0.2337,33.0,49.34,15.15,-5.77,290.32,7.89,-26.98,2.0,31.683,-7.760325,110.37555,539.93,NaN,0.0,10.374194,,18 / 36,2305,2020-09-27 05:39:21:140
5.047,-1.336,8.096,4.4069,-1.3457,8.6567,0.2836,0.1087,-0.2337,33.0,49.34,15.15,-5.77,290.32,7.89,-26.98,2.0,31.683,-7.760325,110.37555,539.93,NaN,0.0,10.374194,,18 / 36,2314,2020-09-27 05:39:21:149
5.047,-1.336,8.096,4.4069,-1.3457,8.6567,0.2836,0.1087,-0.2337,33.0,49.34,15.15,-5.77,290.32,7.89,-26.98,2.0,31.683,-7.760325,110.37555,539.93,NaN,0.0,10.374194,,18 / 36,2325,2020-09-27 05:39:21:160
5.047,-1.336,8.096,4.4069,-1.3457,8.6567,0.2836,0.1087,-0.2337,33.0,49.34,15.15,-5.77,290.32,7.89,-26.98,2.0,31.683,-7.760325,110.37555,539.93,NaN,0.0,10.374194,,18 / 36,2335,2020-09-27 05:39:21:170
5.047,-1.336,8.096,4.4069,-1.3457,8.6567,0.2836,0.1087,-0.2337,33.0,49.34,15.15,-5.77,290.32,7.89,-26.98,2.0,31.683,-7.760325,110.37555,539.93,NaN,0.0,10.374194,,18 / 36,2345,2020-09-27 05:39:21:180
5.047,-1.336,8.096,4.4069,-1.3457,8.6567,0.2836,0.1087,-0.2337,33.0,49.34,15.15,-5.77,290.32,7.89,-26.98,2.0,31.683,-7.760325,110.37555,539.93,NaN,0.0,10.374194,,18 / 36,2354,2020-09-27 05:39:21:189
5.047,-1.336,8.096,4.4069,-1.3457,8.6567,0.2836,0.1087,-0.2337,33.0,49.34,15.15,-5.77,290.32,7.89,-26.98,2.0,31.683,-7.760325,110.37555,539.93,NaN,0.0,10.374194,,18 / 36,2365,2020-09-27 05:39:21:200
5.047,-1.336,8.096,4.4069,-1.3457,8.6567,0.2836,0.1087,-0.2337,33.0,49.34,15.15,-5.77,290.32,7.89,-26.98,2.0,31.683,-7.760325,110.37555,539.93,NaN,0.0,10.374194,,18 / 36,2375,2020-09-27 05:39:21:210
5.047,-1.336,8.096,4.4069,-1.3457,8.6567,0.2836,0.1087,-0.2337,33.0,49.34,15.15,-5.77,290.32,7.89,-26.98,2.0,31.683,-7.760325,110.37555,539.93,NaN,0.0,10.374194,,18 / 36,2384,2020-09-27 05:39:21:219
5.047,-1.336,8.096,4.4069,-1.3457,8.6567,0.2836,0.1087,-0.2337,33.0,49.34,15.15,-5.77,290.32,7.89,-26.98,2.0,31.683,-7.760325,110.37555,539.93,NaN,0.0,10.374194,,18 / 36,2395,2020-09-27 05:39:21:230
5.047,-1.336,8.096,4.4069,-1.3457,8.6567,0.2836,0.1087,-0.2337,33.0,49.34,15.15,-5.77,290.32,7.89,-26.98,2.0,31.683,-7.760325,110.37555,539.93,NaN,0.0,10.374194,,18 / 36,2405,2020-09-27 05:39:21:240
5.047,-1.336,8.096,4.4069,-1.3457,8.6567,0.2836,0.1087,-0.2337,33.0,49.34,15.15,-5.77,290.32,7.89,-26.98,2.0,31.683,-7.760325,110.37555,539.93,NaN,0.0,10.374194,,18 / 36,2414,2020-09-27 05:39:21:249
5.047,-1.336,8.096,4.4069,-1.3457,8.6567,0.2836,0.1087,-0.2337,33.0,49.34,15.15,-5.77,290.32,7.89,-26.98,2.0,31.683,-7.760325,110.37555,539.93,NaN,0.0,10.374194,,18 / 36,2426,2020-09-27 05:39:21:261
5.047,-1.336,8.096,4.4069,-1.3457,8.6567,0.2836,0.1087,-0.2337,33.0,49.34,15.15,-5.77,290.32,7.89,-26.98,2.0,31.683,-7.760325,110.37555,539.93,NaN,0.0,10.374194,,18 / 36,2436,2020-09-27 05:39:21:271
5.047,-1.336,8.096,4.4069,-1.3457,8.6567,0.2836,0.1087,-0.2337,33.0,49.34,15.15,-5.77,290.32,7.89,-26.98,2.0,31.683,-7.760325,110.37555,539.93,NaN,0.0,10.374194,,18 / 36,2445,2020-09-27 05:39:21:280
5.3774,-1.5323,7.7991,4.9259,-1.5211,8.3422,0.3614,-0.0427,-0.4963,27.0,49.8,13.2,-9.37,287.02,7.89,-26.98,2.0,31.683,-7.760325,110.37555,539.93,NaN,0.0,10.374194,,18 / 36,2466,2020-09-27 05:39:21:301
5.3774,-1.5323,7.7991,4.9259,-1.5211,8.3422,0.3614,-0.0427,-0.4963,27.0,49.8,13.2,-9.37,287.02,7.89,-26.98,2.0,31.683,-7.760325,110.37555,539.93,NaN,0.0,10.374194,,18 / 36,2467,2020-09-27 05:39:21:302
5.3774,-1.5323,7.7991,4.9259,-1.5211,8.3422,0.3614,-0.0427,-0.4963,27.0,49.8,13.2,-9.37,287.02,7.89,-26.98,2.0,31.683,-7.760325,110.37555,539.93,NaN,0.0,10.374194,,18 / 36,2475,2020-09-27 05:39:21:310
5.3774,-1.5323,7.7991,4.9259,-1.5211,8.3422,0.3614,-0.0427,-0.4963,27.0,49.8,13.2,-9.37,287.02,7.89,-26.98,2.0,31.683,-7.760325,110.37555,539.93,NaN,0.0,10.374194,,18 / 36,2485,2020-09-27 05:39:21:320
5.3774,-1.5323,7.7991,4.9259,-1.5211,8.3422,0.3614,-0.0427,-0.4963,27.0,49.8,13.2,-9.37,287.02,7.89,-26.98,2.0,31.683,-7.760325,110.37555,539.93,NaN,0.0,10.374194,,18 / 36,2495,2020-09-27 05:39:21:330
5.3774,-1.5323,7.7991,4.9259,-1.5211,8.3422,0.3614,-0.0427,-0.4963,27.0,49.8,13.2,-9.37,287.02,7.89,-26.98,2.0,31.683,-7.760325,110.37555,539.93,NaN,0.0,10.374194,,18 / 36,2505,2020-09-27 05:39:21:340
5.3774,-1.5323,7.7991,4.9259,-1.5211,8.3422,0.3614,-0.0427,-0.4963,27.0,49.8,13.2,-9.37,287.02,7.89,-26.98,2.0,31.683,-7.760325,110.37555,539.93,NaN,0.0,10.374194,,18 / 36,2514,2020-09-27 05:39:21:349
5.3774,-1.5323,7.7991,4.9259,-1.5211,8.3422,0.3614,-0.0427,-0.4963,27.0,49.8,13.2,-9.37,287.02,7.89,-26.98,2.0,31.683,-7.760325,110.37555,539.93,NaN,0.0,10.374194,,18 / 36,2525,2020-09-27 05:39:21:360
5.3774,-1.5323,7.7991,4.9259,-1.5211,8.3422,0.3614,-0.0427,-0.4963,27.0,49.8,13.2,-9.37,287.02,7.89,-26.98,2.0,31.683,-7.760325,110.37555,539.93,NaN,0.0,10.374194,,18 / 36,2535,2020-09-27 05:39:21:370
5.3774,-1.5323,7.7991,4.9259,-1.5211,8.3422,0.3614,-0.0427,-0.4963,27.0,49.8,13.2,-9.37,287.02,7.89,-26.98,2.0,31.683,-7.760325,110.37555,539.93,NaN,0.0,10.374194,,18 / 36,2545,2020-09-27 05:39:21:380
5.3774,-1.5323,7.7991,4.9259,-1.5211,8.3422,0.3614,-0.0427,-0.4963,27.0,49.8,13.2,-9.37,287.02,7.89,-26.98,2.0,31.683,-7.760325,110.37555,539.93,NaN,0.0,10.374194,,18 / 36,2555,2020-09-27 05:39:21:390
5.3774,-1.5323,7.7991,4.9259,-1.5211,8.3422,0.3614,-0.0427,-0.4963,27.0,49.8,13.2,-9.37,287.02,7.89,-26.98,2.0,31.683,-7.760325,110.37555,539.93,NaN,0.0,10.374194,,18 / 36,2565,2020-09-27 05:39:21:400
5.3774,-1.5323,7.7991,4.9259,-1.5211,8.3422,0.3614,-0.0427,-0.4963,27.0,49.8,13.2,-9.37,287.02,7.89,-26.98,2.0,31.683,-7.760325,110.37555,539.93,NaN,0.0,10.374194,,18 / 36,2575,2020-09-27 05:39:21:410
5.9472,-1.9201,7.9715,5.4605,-1.7367,7.9585,0.3827,-0.1888,-0.059,27.0,47.82,10.35,-10.79,284.57,8.92,-30.56,2.0,31.683,-7.760325,110.37555,539.93,NaN,0.0,10.374194,,18 / 36,2585,2020-09-27 05:39:21:420
5.9472,-1.9201,7.9715,5.4605,-1.7367,7.9585,0.3827,-0.1888,-0.059,27.0,47.82,10.35,-10.79,284.57,8.92,-30.56,2.0,31.683,-7.760325,110.37555,539.93,NaN,0.0,10.374194,,18 / 36,2595,2020-09-27 05:39:21:430
5.9472,-1.9201,7.9715,5.4605,-1.7367,7.9585,0.3827,-0.1888,-0.059,27.0,47.82,10.35,-10.79,284.57,8.92,-30.56,2.0,31.683,-7.760325,110.37555,539.93,NaN,0.0,10.374194,,18 / 36,2605,2020-09-27 05:39:21:440
5.9472,-1.9201,7.9715,5.4605,-1.7367,7.9585,0.3827,-0.1888,-0.059,27.0,47.82,10.35,-10.79,284.57,8.92,-30.56,2.0,31.683,-7.760325,110.37555,539.93,NaN,0.0,10.374194,,18 / 36,2615,2020-09-27 05:39:21:450
5.9472,-1.9201,7.9715,5.4605,-1.7367,7.9585,0.3827,-0.1888,-0.059,27.0,47.82,10.35,-10.79,284.57,8.92,-30.56,2.0,31.683,-7.760325,110.37555,539.93,NaN,0.0,10.374194,,18 / 36,2625,2020-09-27 05:39:21:460
5.9472,-1.9201,7.9715,5.4605,-1.7367,7.9585,0.3827,-0.1888,-0.059,27.0,47.82,10.35,-10.79,284.57,8.92,-30.56,2.0,31.683,-7.760325,110.37555,539.93,NaN,0.0,10.374194,,18 / 36,2635,2020-09-27 05:39:21:470
5.9472,-1.9201,7.9715,5.4605,-1.7367,7.9585,0.3827,-0.1888,-0.059,27.0,47.82,10.35,-10.79,284.57,8.92,-30.56,2.0,31.683,-7.760325,110.37555,539.93,NaN,0.0,10.374194,,18 / 36,2645,2020-09-27 05:39:21:480
5.9472,-1.9201,7.9715,5.4605,-1.7367,7.9585,0.3827,-0.1888,-0.059,27.0,47.82,10.35,-10.79,284.57,8.92,-30.56,2.0,31.683,-7.760325,110.37555,539.93,NaN,0.0,10.374194,,18 / 36,2655,2020-09-27 05:39:21:490
5.9472,-1.9201,7.9715,5.4605,-1.7367,7.9585,0.3827,-0.1888,-0.059,27.0,47.82,10.35,-10.79,284.57,8.92,-30.56,2.0,31.683,-7.760325,110.37555,539.93,NaN,0.0,10.374194,,18 / 36,2665,2020-09-27 05:39:21:500
5.9472,-1.9201,7.9715,5.4605,-1.7367,7.9585,0.3827,-0.1888,-0.059,27.0,47.82,10.35,-10.79,284.57,8.92,-30.56,2.0,31.683,-7.760325,110.37555,539.93,NaN,0.0,10.374194,,18 / 36,2674,2020-09-27 05:39:21:509
5.9472,-1.9201,7.9715,5.4605,-1.7367,7.9585,0.3827,-0.1888,-0.059,27.0,47.82,10.35,-10.79,284.57,8.92,-30.56,2.0,31.683,-7.760325,110.37555,539.93,NaN,0.0,10.374194,,18 / 36,2685,2020-09-27 05:39:21:520
5.9472,-1.9201,7.9715,5.4605,-1.7367,7.9585,0.3827,-0.1888,-0.059,27.0,47.82,10.35,-10.79,284.57,8.92,-30.56,2.0,31.683,-7.760325,110.37555,539.93,NaN,0.0,10.374194,,18 / 36,2695,2020-09-27 05:39:21:530
5.9472,-1.9201,7.9715,5.4605,-1.7367,7.9585,0.3827,-0.1888,-0.059,27.0,47.82,10.35,-10.79,284.57,8.92,-30.56,2.0,31.683,-7.760325,110.37555,539.93,NaN,0.0,10.374194,,18 / 36,2705,2020-09-27 05:39:21:540
5.9472,-1.9201,7.9715,5.4605,-1.7367,7.9585,0.3827,-0.1888,-0.059,27.0,47.82,10.35,-10.79,284.57,8.92,-30.56,2.0,31.683,-7.760325,110.37555,539.93,NaN,0.0,10.374194,,18 / 36,2716,2020-09-27 05:39:21:551
5.9472,-1.9201,7.9715,5.4605,-1.7367,7.9585,0.3827,-0.1888,-0.059,27.0,47.82,10.35,-10.79,284.57,8.92,-30.56,2.0,31.683,-7.760325,110.37555,539.93,NaN,0.0,10.374194,,18 / 36,2725,2020-09-27 05:39:21:560
5.9472,-1.9201,7.9715,5.4605,-1.7367,7.9585,0.3827,-0.1888,-0.059,27.0,47.82,10.35,-10.79,284.57,8.92,-30.56,2.0,31.683,-7.760325,110.37555,539.93,NaN,0.0,10.374194,,18 / 36,2735,2020-09-27 05:39:21:570
5.9472,-1.9201,7.9715,5.4605,-1.7367,7.9585,0.3827,-0.1888,-0.059,27.0,47.82,10.35,-10.79,284.57,8.92,-30.56,2.0,31.683,-7.760325,110.37555,539.93,NaN,0.0,10.374194,,18 / 36,2745,2020-09-27 05:39:21:580
5.9472,-1.9201,7.9715,5.4605,-1.7367,7.9585,0.3827,-0.1888,-0.059,27.0,47.82,10.35,-10.79,284.57,8.92,-30.56,2.0,31.683,-7.760325,110.37555,539.93,NaN,0.0,10.374194,,18 / 36,2755,2020-09-27 05:39:21:590
5.9472,-1.9201,7.9715,5.4605,-1.7367,7.9585,0.3827,-0.1888,-0.059,27.0,47.82,10.35,-10.79,284.57,8.92,-30.56,2.0,31.683,-7.760325,110.37555,539.93,NaN,0.0,10.374194,,18 / 36,2764,2020-09-27 05:39:21:599
5.9472,-1.9201,7.9715,5.4605,-1.7367,7.9585,0.3827,-0.1888,-0.059,27.0,47.82,10.35,-10.79,284.57,8.92,-30.56,2.0,31.683,-7.760325,110.37555,539.93,NaN,0.0,10.374194,,18 / 36,2776,2020-09-27 05:39:21:611
5.9472,-1.9201,7.9715,5.4605,-1.7367,7.9585,0.3827,-0.1888,-0.059,27.0,47.82,10.35,-10.79,284.57,8.92,-30.56,2.0,31.683,-7.760325,110.37555,539.93,NaN,0.0,10.374194,,18 / 36,2784,2020-09-27 05:39:21:619
5.9472,-1.9201,7.9715,5.4605,-1.7367,7.9585,0.3827,-0.1888,-0.059,27.0,47.82,10.35,-10.79,284.57,8.92,-30.56,2.0,31.683,-7.760325,110.37555,539.93,NaN,0.0,10.374194,,18 / 36,2795,2020-09-27 05:39:21:630
5.9472,-1.9201,7.9715,5.4605,-1.7367,7.9585,0.3827,-0.1888,-0.059,27.0,47.82,10.35,-10.79,284.57,8.92,-30.56,2.0,31.683,-7.760325,110.37555,539.93,NaN,0.0,10.374194,,18 / 36,2821,2020-09-27 05:39:21:656
5.9472,-1.9201,7.9715,5.4605,-1.7367,7.9585,0.3827,-0.1888,-0.059,27.0,47.82,10.35,-10.79,284.57,8.92,-30.56,2.0,31.683,-7.760325,110.37555,539.93,NaN,0.0,10.374194,,18 / 36,2822,2020-09-27 05:39:21:657
5.9472,-1.9201,7.9715,5.4605,-1.7367,7.9585,0.3827,-0.1888,-0.059,27.0,47.82,10.35,-10.79,284.57,8.92,-30.56,2.0,31.683,-7.760325,110.37555,539.93,NaN,0.0,10.374194,,18 / 36,2824,2020-09-27 05:39:21:659
5.9472,-1.9201,7.9715,5.4605,-1.7367,7.9585,0.3827,-0.1888,-0.059,27.0,47.82,10.35,-10.79,284.57,8.92,-30.56,2.0,31.683,-7.760325,110.37555,539.93,NaN,0.0,10.374194,,18 / 36,2836,2020-09-27 05:39:21:671
5.9472,-1.9201,7.9715,5.4605,-1.7367,7.9585,0.3827,-0.1888,-0.059,27.0,47.82,10.35,-10.79,284.57,8.92,-30.56,2.0,31.683,-7.760325,110.37555,539.93,NaN,0.0,10.374194,,18 / 36,2845,2020-09-27 05:39:21:680
5.9472,-1.9201,7.9715,5.4605,-1.7367,7.9585,0.3827,-0.1888,-0.059,27.0,47.82,10.35,-10.79,284.57,8.92,-30.56,2.0,31.683,-7.760325,110.37555,539.93,NaN,0.0,10.374194,,18 / 36,2855,2020-09-27 05:39:21:690
5.8849,-1.9824,7.8566,5.5581,-1.8145,7.8731,0.2385,-0.1217,-0.1996,27.0,51.32,6.91,-13.37,281.9,10.66,-35.22,2.0,31.683,-7.760325,110.37555,539.93,NaN,0.0,10.374194,,18 / 36,2865,2020-09-27 05:39:21:700
5.8849,-1.9824,7.8566,5.5581,-1.8145,7.8731,0.2385,-0.1217,-0.1996,27.0,51.32,6.91,-13.37,281.9,10.66,-35.22,2.0,31.683,-7.760325,110.37555,539.93,NaN,0.0,10.374194,,18 / 36,2876,2020-09-27 05:39:21:711
5.8849,-1.9824,7.8566,5.5581,-1.8145,7.8731,0.2385,-0.1217,-0.1996,27.0,51.32,6.91,-13.37,281.9,10.66,-35.22,2.0,31.683,-7.760325,110.37555,539.93,NaN,0.0,10.374194,,18 / 36,2886,2020-09-27 05:39:21:721
5.8849,-1.9824,7.8566,5.5581,-1.8145,7.8731,0.2385,-0.1217,-0.1996,27.0,51.32,6.91,-13.37,281.9,10.66,-35.22,2.0,31.355,-7.760325,110.37555,539.93,NaN,0.0,10.374194,,18 / 36,2897,2020-09-27 05:39:21:732
5.8849,-1.9824,7.8566,5.5581,-1.8145,7.8731,0.2385,-0.1217,-0.1996,27.0,51.32,6.91,-13.37,281.9,10.66,-35.22,2.0,31.355,-7.760325,110.37555,539.93,NaN,0.0,10.374194,,18 / 36,2906,2020-09-27 05:39:21:741
5.8849,-1.9824,7.8566,5.5581,-1.8145,7.8731,0.2385,-0.1217,-0.1996,27.0,51.32,6.91,-13.37,281.9,10.66,-35.22,2.0,31.355,-7.760325,110.37555,539.93,NaN,0.0,10.374194,,18 / 36,2936,2020-09-27 05:39:21:771
5.8849,-1.9824,7.8566,5.5581,-1.8145,7.8731,0.2385,-0.1217,-0.1996,27.0,51.32,6.91,-13.37,281.9,10.66,-35.22,2.0,31.355,-7.760325,110.37555,539.93,NaN,0.0,10.374194,,18 / 36,2937,2020-09-27 05:39:21:772
5.8849,-1.9824,7.8566,5.5581,-1.8145,7.8731,0.2385,-0.1217,-0.1996,27.0,51.32,6.91,-13.37,281.9,10.66,-35.22,2.0,31.355,-7.760325,110.37555,539.93,NaN,0.0,10.374194,,18 / 36,2938,2020-09-27 05:39:21:773
5.8849,-1.9824,7.8566,5.5581,-1.8145,7.8731,0.2385,-0.1217,-0.1996,27.0,51.32,6.91,-13.37,281.9,10.66,-35.22,2.0,31.355,-7.760325,110.37555,539.93,NaN,0.0,10.374194,,18 / 36,2950,2020-09-27 05:39:21:785
5.8849,-1.9824,7.8566,5.5581,-1.8145,7.8731,0.2385,-0.1217,-0.1996,27.0,51.32,6.91,-13.37,281.9,10.66,-35.22,2.0,31.355,-7.760325,110.37555,539.93,NaN,0.0,10.374194,,18 / 36,2957,2020-09-27 05:39:21:792
6.359,-1.9153,8.503,5.5581,-1.8145,7.8731,0.2385,-0.1217,-0.1996,27.0,51.32,6.91,-13.37,281.9,10.66,-35.22,2.0,31.355,-7.760325,110.37555,539.93,NaN,0.0,10.374194,,18 / 36,2972,2020-09-27 05:39:21:807
6.359,-1.9153,8.503,5.5581,-1.8145,7.8731,0.2385,-0.1217,-0.1996,27.0,51.32,6.91,-13.37,281.9,10.66,-35.22,2.0,31.355,-7.760325,110.37555,539.93,NaN,0.0,10.374194,,18 / 36,2975,2020-09-27 05:39:21:810
6.359,-1.9153,8.503,5.5581,-1.8145,7.8731,0.2385,-0.1217,-0.1996,27.0,51.32,6.91,-13.37,281.9,10.66,-35.22,2.0,31.355,-7.760325,110.37555,539.93,NaN,0.0,10.374194,,18 / 36,2984,2020-09-27 05:39:21:819
6.359,-1.9153,8.503,5.5581,-1.8145,7.8731,0.2385,-0.1217,-0.1996,27.0,51.32,6.91,-13.37,281.9,10.66,-35.22,2.0,31.355,-7.760325,110.37555,539.93,NaN,0.0,10.374194,,18 / 36,2995,2020-09-27 05:39:21:830
6.359,-1.9153,8.503,5.7356,-1.8065,7.7466,0.4299,0.1832,-0.2204,27.0,49.49,1.35,-13.47,275.37,10.62,-36.52,2.0,31.355,-7.760325,110.37555,539.93,NaN,0.0,10.374194,,18 / 36,3012,2020-09-27 05:39:21:847
6.359,-1.9153,8.503,5.7356,-1.8065,7.7466,0.4299,0.1832,-0.2204,27.0,49.49,1.35,-13.47,275.37,10.62,-36.52,2.0,31.355,-7.760325,110.37555,539.93,NaN,0.0,10.374194,,18 / 36,3016,2020-09-27 05:39:21:851
6.359,-1.9153,8.503,5.7356,-1.8065,7.7466,0.4299,0.1832,-0.2204,27.0,49.49,1.35,-13.47,275.37,10.62,-36.52,2.0,31.355,-7.760325,110.37555,539.93,NaN,0.0,10.374194,,18 / 36,3035,2020-09-27 05:39:21:870
6.359,-1.9153,8.503,5.7356,-1.8065,7.7466,0.4299,0.1832,-0.2204,27.0,49.49,1.35,-13.47,275.37,10.62,-36.52,2.0,31.355,-7.760325,110.37555,539.93,NaN,0.0,10.374194,,18 / 36,3036,2020-09-27 05:39:21:871
6.359,-1.9153,8.503,5.7356,-1.8065,7.7466,0.4299,0.1832,-0.2204,27.0,49.49,1.35,-13.47,275.37,10.62,-36.52,2.0,31.355,-7.760325,110.37555,539.93,NaN,0.0,10.374194,,17 / 36,3047,2020-09-27 05:39:21:882
6.359,-1.9153,8.503,5.7356,-1.8065,7.7466,0.4299,0.1832,-0.2204,27.0,49.49,1.35,-13.47,275.37,10.62,-36.52,2.0,31.355,-7.760325,110.37555,539.93,NaN,0.0,10.374194,,17 / 36,3055,2020-09-27 05:39:21:890
6.359,-1.9153,8.503,5.7356,-1.8065,7.7466,0.4299,0.1832,-0.2204,27.0,49.49,1.35,-13.47,275.37,10.62,-36.52,2.0,31.355,-7.760325,110.37555,539.93,NaN,0.0,10.374194,,17 / 36,3074,2020-09-27 05:39:21:909
6.359,-1.9153,8.503,5.7356,-1.8065,7.7466,0.4299,0.1832,-0.2204,27.0,49.49,1.35,-13.47,275.37,10.62,-36.52,2.0,31.355,-7.760325,110.37555,539.93,NaN,0.0,10.374194,,17 / 36,3075,2020-09-27 05:39:21:910
6.359,-1.9153,8.503,5.7356,-1.8065,7.7466,0.4299,0.1832,-0.2204,27.0,49.49,1.35,-13.47,275.37,10.62,-36.52,2.0,31.355,-7.760325,110.37555,539.93,NaN,0.0,10.374194,,17 / 36,3085,2020-09-27 05:39:21:920
5.4444,-2.5043,8.5844,5.732,-1.9503,7.7143,-0.269,-0.4348,-0.4619,27.0,49.49,1.35,-13.47,275.37,10.62,-36.52,2.0,31.355,-7.760325,110.37555,539.93,NaN,0.0,10.374194,,17 / 36,3096,2020-09-27 05:39:21:931
5.4444,-2.5043,8.5844,5.732,-1.9503,7.7143,-0.269,-0.4348,-0.4619,27.0,49.49,1.35,-13.47,275.37,10.62,-36.52,2.0,31.355,-7.760325,110.37555,539.93,NaN,0.0,10.374194,,17 / 36,3108,2020-09-27 05:39:21:943
5.4444,-2.5043,8.5844,5.732,-1.9503,7.7143,-0.269,-0.4348,-0.4619,27.0,49.49,1.35,-13.47,275.37,10.62,-36.52,2.0,31.355,-7.760325,110.37555,539.93,NaN,0.0,10.374194,,17 / 36,3118,2020-09-27 05:39:21:953
5.4444,-2.5043,8.5844,5.732,-1.9503,7.7143,-0.269,-0.4348,-0.4619,27.0,49.49,1.35,-13.47,275.37,10.62,-36.52,2.0,31.355,-7.760325,110.37555,539.93,NaN,0.0,10.374194,,17 / 36,3125,2020-09-27 05:39:21:960
5.4444,-2.5043,8.5844,5.732,-1.9503,7.7143,-0.269,-0.4348,-0.4619,27.0,49.49,1.35,-13.47,275.37,10.62,-36.52,2.0,31.355,-7.760325,110.37555,539.93,NaN,0.0,10.374194,,17 / 36,3138,2020-09-27 05:39:21:973
5.4444,-2.5043,8.5844,5.732,-1.9503,7.7143,-0.269,-0.4348,-0.4619,27.0,49.49,1.35,-13.47,275.37,10.62,-36.52,2.0,31.355,-7.760325,110.37555,539.93,NaN,0.0,10.374194,,17 / 36,3145,2020-09-27 05:39:21:980
5.4444,-2.5043,8.5844,5.732,-1.9503,7.7143,-0.269,-0.4348,-0.4619,27.0,49.49,1.35,-13.47,275.37,10.62,-36.52,2.0,31.355,-7.760325,110.37555,539.93,NaN,0.0,10.374194,,17 / 36,3155,2020-09-27 05:39:21:990
5.4444,-2.5043,8.5844,5.732,-1.9503,7.7143,-0.269,-0.4348,-0.4619,27.0,49.22,-0.63,-14.14,273.12,11.47,-36.61,2.0,31.355,-7.760325,110.37555,539.93,NaN,0.0,10.374194,,17 / 36,3166,2020-09-27 05:39:22:001
5.4444,-2.5043,8.5844,5.732,-1.9503,7.7143,-0.269,-0.4348,-0.4619,27.0,49.22,-0.63,-14.14,273.12,11.47,-36.61,2.0,31.355,-7.760325,110.37555,539.93,NaN,0.0,10.374194,,17 / 36,3175,2020-09-27 05:39:22:010
5.4444,-2.5043,8.5844,5.732,-1.9503,7.7143,-0.269,-0.4348,-0.4619,27.0,49.22,-0.63,-14.14,273.12,11.47,-36.61,2.0,31.355,-7.760325,110.37555,539.93,NaN,0.0,10.374194,,17 / 36,3184,2020-09-27 05:39:22:019
5.4444,-2.5043,8.5844,5.732,-1.9503,7.7143,-0.269,-0.4348,-0.4619,27.0,49.22,-0.63,-14.14,273.12,11.47,-36.61,2.0,31.355,-7.760325,110.37555,539.93,NaN,0.0,10.374194,,17 / 36,3195,2020-09-27 05:39:22:030
5.4444,-2.5043,8.5844,5.8657,-1.908,7.6239,0.6049,0.2092,-0.8054,27.0,49.22,-0.63,-14.14,273.12,11.47,-36.61,2.0,31.355,-7.760325,110.37555,539.93,NaN,0.0,10.374194,,17 / 36,3204,2020-09-27 05:39:22:039
5.4444,-2.5043,8.5844,5.8657,-1.908,7.6239,0.6049,0.2092,-0.8054,27.0,49.22,-0.63,-14.14,273.12,11.47,-36.61,2.0,31.355,-7.760325,110.37555,539.93,NaN,0.0,10.374194,,17 / 36,3216,2020-09-27 05:39:22:051
6.3207,-1.968,7.1144,5.8657,-1.908,7.6239,0.6049,0.2092,-0.8054,27.0,49.22,-0.63,-14.14,273.12,11.47,-36.61,2.0,31.355,-7.760325,110.37555,539.93,NaN,0.0,10.374194,,17 / 36,3227,2020-09-27 05:39:22:062
6.3207,-1.968,7.1144,5.8657,-1.908,7.6239,0.6049,0.2092,-0.8054,27.0,49.22,-0.63,-14.14,273.12,11.47,-36.61,2.0,31.355,-7.760325,110.37555,539.93,NaN,0.0,10.374194,,17 / 36,3235,2020-09-27 05:39:22:070
6.3207,-1.968,7.1144,5.8657,-1.908,7.6239,0.6049,0.2092,-0.8054,27.0,49.22,-0.63,-14.14,273.12,11.47,-36.61,2.0,31.355,-7.760325,110.37555,539.93,NaN,0.0,10.374194,,17 / 36,3245,2020-09-27 05:39:22:080
6.3207,-1.968,7.1144,5.8657,-1.908,7.6239,0.6049,0.2092,-0.8054,27.0,49.22,-0.63,-14.14,273.12,11.47,-36.61,2.0,32.162,-7.760325,110.37555,539.93,NaN,0.0,10.374194,,17 / 36,3255,2020-09-27 05:39:22:090
6.3207,-1.968,7.1144,5.8657,-1.908,7.6239,0.6049,0.2092,-0.8054,27.0,49.22,-0.63,-14.14,273.12,11.47,-36.61,2.0,32.162,-7.760325,110.37555,539.93,NaN,0.0,10.374194,,17 / 36,3265,2020-09-27 05:39:22:100
6.3207,-1.968,7.1144,5.8657,-1.908,7.6239,0.6049,0.2092,-0.8054,27.0,49.05,-1.31,-13.86,273.23,11.22,-37.57,2.0,32.162,-7.760325,110.37555,539.93,NaN,0.0,10.374194,,17 / 36,3282,2020-09-27 05:39:22:117
6.3207,-1.968,7.1144,5.8657,-1.908,7.6239,0.6049,0.2092,-0.8054,27.0,49.05,-1.31,-13.86,273.23,11.22,-37.57,2.0,32.162,-7.760325,110.37555,539.93,NaN,0.0,10.374194,,17 / 36,3286,2020-09-27 05:39:22:121
6.3207,-1.968,7.1144,5.8657,-1.908,7.6239,0.6049,0.2092,-0.8054,27.0,49.05,-1.31,-13.86,273.23,11.22,-37.57,2.0,32.162,-7.760325,110.37555,539.93,NaN,0.0,10.374194,,17 / 36,3295,2020-09-27 05:39:22:130
6.3207,-1.968,7.1144,5.8657,-1.908,7.6239,0.6049,0.2092,-0.8054,27.0,49.05,-1.31,-13.86,273.23,11.22,-37.57,2.0,32.162,-7.760325,110.37555,539.93,NaN,0.0,10.374194,,17 / 36,3305,2020-09-27 05:39:22:140
6.3207,-1.968,7.1144,5.8657,-1.908,7.6239,0.6049,0.2092,-0.8054,27.0,49.05,-1.31,-13.86,273.23,11.22,-37.57,2.0,32.162,-7.760325,110.37555,539.93,NaN,0.0,10.374194,,17 / 36,3315,2020-09-27 05:39:22:150
6.3207,-1.968,7.1144,5.8657,-1.908,7.6239,0.6049,0.2092,-0.8054,27.0,49.05,-1.31,-13.86,273.23,11.22,-37.57,2.0,32.162,-7.760325,110.37555,539.93,NaN,0.0,10.374194,,17 / 36,3325,2020-09-27 05:39:22:160
6.3207,-1.968,7.1144,5.8657,-1.908,7.6239,0.6049,0.2092,-0.8054,27.0,49.05,-1.31,-13.86,273.23,11.22,-37.57,2.0,32.162,-7.760325,110.37555,539.93,NaN,0.0,10.374194,,17 / 36,3335,2020-09-27 05:39:22:170
6.3207,-1.968,7.1144,5.8657,-1.908,7.6239,0.6049,0.2092,-0.8054,27.0,49.05,-1.31,-13.86,273.23,11.22,-37.57,2.0,32.162,-7.760325,110.37555,539.93,NaN,0.0,10.374194,,17 / 36,3345,2020-09-27 05:39:22:180
6.3015,-2.217,8.2013,5.8657,-1.908,7.6239,0.6049,0.2092,-0.8054,27.0,49.05,-1.31,-13.86,273.23,11.22,-37.57,2.0,32.162,-7.760325,110.37555,539.93,NaN,0.0,10.374194,,17 / 36,3355,2020-09-27 05:39:22:190
6.3015,-2.217,8.2013,5.8542,-2.0498,7.5959,0.2495,-0.0721,0.142,20.0,49.05,-1.31,-13.86,273.23,11.22,-37.57,2.0,32.162,-7.760325,110.37555,539.93,NaN,0.0,10.374194,,17 / 36,3365,2020-09-27 05:39:22:200
6.3015,-2.217,8.2013,5.8542,-2.0498,7.5959,0.2495,-0.0721,0.142,20.0,49.05,-1.31,-13.86,273.23,11.22,-37.57,2.0,32.162,-7.760325,110.37555,539.93,NaN,0.0,10.374194,,17 / 36,3375,2020-09-27 05:39:22:210
6.3015,-2.217,8.2013,5.8542,-2.0498,7.5959,0.2495,-0.0721,0.142,20.0,49.05,-1.31,-13.86,273.23,11.22,-37.57,2.0,32.162,-7.760325,110.37555,539.93,NaN,0.0,10.374194,,17 / 36,3387,2020-09-27 05:39:22:222
6.3015,-2.217,8.2013,5.8542,-2.0498,7.5959,0.2495,-0.0721,0.142,20.0,49.05,-1.31,-13.86,273.23,11.22,-37.57,2.0,32.162,-7.760325,110.37555,539.93,NaN,0.0,10.374194,,17 / 36,3395,2020-09-27 05:39:22:230
6.3015,-2.217,8.2013,5.8542,-2.0498,7.5959,0.2495,-0.0721,0.142,20.0,49.05,-1.31,-13.86,273.23,11.22,-37.57,2.0,32.162,-7.760325,110.37555,539.93,NaN,0.0,10.374194,,17 / 36,3405,2020-09-27 05:39:22:240
6.3015,-2.217,8.2013,5.8542,-2.0498,7.5959,0.2495,-0.0721,0.142,20.0,49.05,-1.31,-13.86,273.23,11.22,-37.57,2.0,32.162,-7.760325,110.37555,539.93,NaN,0.0,10.374194,,17 / 36,3414,2020-09-27 05:39:22:249
6.3015,-2.217,8.2013,5.8542,-2.0498,7.5959,0.2495,-0.0721,0.142,20.0,49.05,-1.31,-13.86,273.23,11.22,-37.57,2.0,32.162,-7.760325,110.37555,539.93,NaN,0.0,10.374194,,17 / 36,3425,2020-09-27 05:39:22:260
6.3015,-2.217,8.2013,5.8542,-2.0498,7.5959,0.2495,-0.0721,0.142,20.0,48.85,-4.46,-13.44,270.23,12.07,-37.62,2.0,32.162,-7.760325,110.37555,539.93,NaN,0.0,10.374194,,17 / 36,3436,2020-09-27 05:39:22:271
6.3015,-2.217,8.2013,5.8542,-2.0498,7.5959,0.2495,-0.0721,0.142,20.0,48.85,-4.46,-13.44,270.23,12.07,-37.62,2.0,32.162,-7.760325,110.37555,539.93,NaN,0.0,10.374194,,17 / 36,3445,2020-09-27 05:39:22:280
6.3015,-2.217,8.2013,5.8542,-2.0498,7.5959,0.2495,-0.0721,0.142,20.0,48.85,-4.46,-13.44,270.23,12.07,-37.62,2.0,32.162,-7.760325,110.37555,539.93,NaN,0.0,10.374194,,17 / 36,3455,2020-09-27 05:39:22:290
6.3015,-2.217,8.2013,5.8542,-2.0498,7.5959,0.2495,-0.0721,0.142,20.0,48.85,-4.46,-13.44,270.23,12.07,-37.62,2.0,32.162,-7.760325,110.37555,539.93,NaN,0.0,10.374194,,17 / 36,3465,2020-09-27 05:39:22:300
6.4404,-2.0542,7.4687,5.8995,-2.0315,7.5657,0.1531,0.0706,-0.1242,20.0,48.85,-4.46,-13.44,270.23,12.07,-37.62,2.0,32.162,-7.760325,110.37555,539.93,NaN,0.0,10.374194,,17 / 36,3475,2020-09-27 05:39:22:310
6.4404,-2.0542,7.4687,5.8995,-2.0315,7.5657,0.1531,0.0706,-0.1242,20.0,48.85,-4.46,-13.44,270.23,12.07,-37.62,2.0,32.162,-7.760325,110.37555,539.93,NaN,0.0,10.374194,,17 / 36,3485,2020-09-27 05:39:22:320
6.4404,-2.0542,7.4687,5.8995,-2.0315,7.5657,0.1531,0.0706,-0.1242,20.0,48.85,-4.46,-13.44,270.23,12.07,-37.62,2.0,32.162,-7.760325,110.37555,539.93,NaN,0.0,10.374194,,17 / 36,3495,2020-09-27 05:39:22:330
6.4404,-2.0542,7.4687,5.8995,-2.0315,7.5657,0.1531,0.0706,-0.1242,20.0,48.85,-4.46,-13.44,270.23,12.07,-37.62,2.0,32.162,-7.760325,110.37555,539.93,NaN,0.0,10.374194,,17 / 36,3505,2020-09-27 05:39:22:340
6.4404,-2.0542,7.4687,5.8995,-2.0315,7.5657,0.1531,0.0706,-0.1242,20.0,48.85,-4.46,-13.44,270.23,12.07,-37.62,2.0,32.162,-7.760325,110.37555,539.93,NaN,0.0,10.374194,,17 / 36,3515,2020-09-27 05:39:22:350
6.4404,-2.0542,7.4687,5.8995,-2.0315,7.5657,0.1531,0.0706,-0.1242,20.0,48.85,-4.46,-13.44,270.23,12.07,-37.62,2.0,32.162,-7.760325,110.37555,539.93,NaN,0.0,10.374194,,17 / 36,3525,2020-09-27 05:39:22:360
6.4404,-2.0542,7.4687,5.8995,-2.0315,7.5657,0.1531,0.0706,-0.1242,20.0,48.85,-4.46,-13.44,270.23,12.07,-37.62,2.0,32.162,-7.760325,110.37555,539.93,NaN,0.0,10.374194,,17 / 36,3536,2020-09-27 05:39:22:371
6.4404,-2.0542,7.4687,5.8995,-2.0315,7.5657,0.1531,0.0706,-0.1242,20.0,48.53,-4.01,-12.51,270.25,11.96,-37.95,2.0,32.162,-7.760325,110.37555,539.93,NaN,0.0,10.374194,,17 / 36,3545,2020-09-27 05:39:22:380
6.4404,-2.0542,7.4687,5.8995,-2.0315,7.5657,0.1531,0.0706,-0.1242,20.0,48.53,-4.01,-12.51,270.25,11.96,-37.95,2.0,32.162,-7.760325,110.37555,539.93,NaN,0.0,10.374194,,17 / 36,3555,2020-09-27 05:39:22:390
6.4404,-2.0542,7.4687,5.8995,-2.0315,7.5657,0.1531,0.0706,-0.1242,20.0,48.53,-4.01,-12.51,270.25,11.96,-37.95,2.0,35.225,-7.760325,110.37555,539.93,NaN,0.0,10.374194,,17 / 36,3565,2020-09-27 05:39:22:400
6.4404,-2.0542,7.4687,5.8995,-2.0315,7.5657,0.1531,0.0706,-0.1242,20.0,48.53,-4.01,-12.51,270.25,11.96,-37.95,2.0,35.225,-7.760325,110.37555,539.93,NaN,0.0,10.374194,,17 / 36,3575,2020-09-27 05:39:22:410
6.4404,-2.0542,7.4687,5.8995,-2.0315,7.5657,0.1531,0.0706,-0.1242,20.0,48.53,-4.01,-12.51,270.25,11.96,-37.95,2.0,35.225,-7.760325,110.37555,539.93,NaN,0.0,10.374194,,17 / 36,3585,2020-09-27 05:39:22:420
6.4404,-2.0542,7.4687,5.8995,-2.0315,7.5657,0.1531,0.0706,-0.1242,20.0,48.53,-4.01,-12.51,270.25,11.96,-37.95,2.0,35.225,-7.760325,110.37555,539.93,NaN,0.0,10.374194,,17 / 36,3595,2020-09-27 05:39:22:430
6.5793,-2.0063,7.7417,5.8995,-2.0315,7.5657,0.1531,0.0706,-0.1242,20.0,48.53,-4.01,-12.51,270.25,11.96,-37.95,2.0,35.225,-7.760325,110.37555,539.93,NaN,0.0,10.374194,,17 / 36,3605,2020-09-27 05:39:22:440
6.5793,-2.0063,7.7417,5.8995,-2.0315,7.5657,0.1531,0.0706,-0.1242,20.0,48.53,-4.01,-12.51,270.25,11.96,-37.95,2.0,35.225,-7.760325,110.37555,539.93,NaN,0.0,10.374194,,17 / 36,3615,2020-09-27 05:39:22:450
6.5793,-2.0063,7.7417,5.9681,-2.0391,7.5096,-0.0252,-0.0027,0.0852,20.0,48.53,-4.01,-12.51,270.25,11.96,-37.95,2.0,35.225,-7.760325,110.37555,539.93,NaN,0.0,10.374194,,17 / 36,3626,2020-09-27 05:39:22:461
6.5793,-2.0063,7.7417,5.9681,-2.0391,7.5096,-0.0252,-0.0027,0.0852,21.0,48.53,-4.01,-12.51,270.25,11.96,-37.95,2.0,35.225,-7.760325,110.37555,539.93,NaN,0.0,10.374194,,17 / 36,3635,2020-09-27 05:39:22:470
6.5793,-2.0063,7.7417,5.9681,-2.0391,7.5096,-0.0252,-0.0027,0.0852,21.0,48.53,-4.01,-12.51,270.25,11.96,-37.95,2.0,35.225,-7.760325,110.37555,539.93,NaN,0.0,10.374194,,17 / 36,3646,2020-09-27 05:39:22:481
6.5793,-2.0063,7.7417,5.9681,-2.0391,7.5096,-0.0252,-0.0027,0.0852,21.0,48.53,-4.01,-12.51,270.25,11.96,-37.95,2.0,35.225,-7.760325,110.37555,539.93,NaN,0.0,10.374194,,17 / 36,3656,2020-09-27 05:39:22:491
6.5793,-2.0063,7.7417,5.9681,-2.0391,7.5096,-0.0252,-0.0027,0.0852,21.0,48.53,-4.01,-12.51,270.25,11.96,-37.95,2.0,35.225,-7.760325,110.37555,539.93,NaN,0.0,10.374194,,17 / 36,3665,2020-09-27 05:39:22:500
6.5793,-2.0063,7.7417,5.9681,-2.0391,7.5096,-0.0252,-0.0027,0.0852,21.0,48.53,-4.01,-12.51,270.25,11.96,-37.95,2.0,35.225,-7.760325,110.37555,539.93,NaN,0.0,10.374194,,17 / 36,3675,2020-09-27 05:39:22:510
6.5793,-2.0063,7.7417,5.9681,-2.0391,7.5096,-0.0252,-0.0027,0.0852,21.0,48.53,-4.01,-12.51,270.25,11.96,-37.95,2.0,35.225,-7.760325,110.37555,539.93,NaN,0.0,10.374194,,17 / 36,3685,2020-09-27 05:39:22:520
6.5793,-2.0063,7.7417,5.9681,-2.0391,7.5096,-0.0252,-0.0027,0.0852,21.0,48.53,-4.01,-12.51,270.25,11.96,-37.95,2.0,35.225,-7.760325,110.37555,539.93,NaN,0.0,10.374194,,17 / 36,3695,2020-09-27 05:39:22:530
6.5793,-2.0063,7.7417,5.9681,-2.0391,7.5096,-0.0252,-0.0027,0.0852,21.0,48.07,-4.32,-10.76,270.65,12.0,-38.48,2.0,35.225,-7.760325,110.37555,539.93,NaN,0.0,10.374194,,17 / 36,3706,2020-09-27 05:39:22:541
6.5793,-2.0063,7.7417,5.9681,-2.0391,7.5096,-0.0252,-0.0027,0.0852,21.0,48.07,-4.32,-10.76,270.65,12.0,-38.48,2.0,35.225,-7.760325,110.37555,539.93,NaN,0.0,10.374194,,17 / 36,3715,2020-09-27 05:39:22:550
6.5793,-2.0063,7.7417,5.9681,-2.0391,7.5096,-0.0252,-0.0027,0.0852,21.0,48.07,-4.32,-10.76,270.65,12.0,-38.48,2.0,35.225,-7.760325,110.37555,539.93,NaN,0.0,10.374194,,17 / 36,3725,2020-09-27 05:39:22:560
6.5793,-2.0638,8.1104,5.9681,-2.0391,7.5096,-0.0252,-0.0027,0.0852,21.0,48.07,-4.32,-10.76,270.65,12.0,-38.48,2.0,35.225,-7.760325,110.37555,539.93,NaN,0.0,10.374194,,17 / 36,3735,2020-09-27 05:39:22:570
6.5793,-2.0638,8.1104,6.0034,-2.0305,7.4838,-0.0848,-0.0579,-0.001,21.0,48.07,-4.32,-10.76,270.65,12.0,-38.48,2.0,35.225,-7.760325,110.37555,539.93,NaN,0.0,10.374194,,17 / 36,3745,2020-09-27 05:39:22:580
6.5793,-2.0638,8.1104,6.0034,-2.0305,7.4838,-0.0848,-0.0579,-0.001,21.0,48.07,-4.32,-10.76,270.65,12.0,-38.48,2.0,35.225,-7.760325,110.37555,539.93,NaN,0.0,10.374194,,17 / 36,3755,2020-09-27 05:39:22:590
6.5793,-2.0638,8.1104,6.0034,-2.0305,7.4838,-0.0848,-0.0579,-0.001,21.0,48.07,-4.32,-10.76,270.65,12.0,-38.48,2.0,35.225,-7.760325,110.37555,539.93,NaN,0.0,10.374194,,17 / 36,3765,2020-09-27 05:39:22:600
6.5793,-2.0638,8.1104,6.0034,-2.0305,7.4838,-0.0848,-0.0579,-0.001,21.0,48.07,-4.32,-10.76,270.65,12.0,-38.48,2.0,35.225,-7.760325,110.37555,539.93,NaN,0.0,10.374194,,17 / 36,3775,2020-09-27 05:39:22:610
6.5793,-2.0638,8.1104,6.0034,-2.0305,7.4838,-0.0848,-0.0579,-0.001,21.0,48.07,-4.32,-10.76,270.65,12.0,-38.48,2.0,35.225,-7.760325,110.37555,539.93,NaN,0.0,10.374194,,17 / 36,3786,2020-09-27 05:39:22:621
6.5793,-2.0638,8.1104,6.0034,-2.0305,7.4838,-0.0848,-0.0579,-0.001,21.0,48.07,-4.32,-10.76,270.65,12.0,-38.48,2.0,35.225,-7.760325,110.37555,539.93,NaN,0.0,10.374194,,17 / 36,3795,2020-09-27 05:39:22:630
6.5793,-2.0638,8.1104,6.0034,-2.0305,7.4838,-0.0848,-0.0579,-0.001,21.0,48.07,-4.32,-10.76,270.65,12.0,-38.48,2.0,35.225,-7.760325,110.37555,539.93,NaN,0.0,10.374194,,17 / 36,3805,2020-09-27 05:39:22:640
6.5793,-2.0638,8.1104,6.0034,-2.0305,7.4838,-0.0848,-0.0579,-0.001,21.0,49.33,-5.01,-8.59,270.0,11.95,-38.74,2.0,35.225,-7.760325,110.37555,539.93,NaN,0.0,10.374194,,17 / 36,3815,2020-09-27 05:39:22:650
6.5793,-2.0638,8.1104,6.0034,-2.0305,7.4838,-0.0848,-0.0579,-0.001,21.0,49.33,-5.01,-8.59,270.0,11.95,-38.74,2.0,35.225,-7.760325,110.37555,539.93,NaN,0.0,10.374194,,17 / 36,3825,2020-09-27 05:39:22:660
6.5793,-2.0638,8.1104,6.0034,-2.0305,7.4838,-0.0848,-0.0579,-0.001,21.0,49.33,-5.01,-8.59,270.0,11.95,-38.74,2.0,35.225,-7.760325,110.37555,539.93,NaN,0.0,10.374194,,17 / 36,3835,2020-09-27 05:39:22:670
6.5793,-2.0638,8.1104,6.0034,-2.0305,7.4838,-0.0848,-0.0579,-0.001,21.0,49.33,-5.01,-8.59,270.0,11.95,-38.74,2.0,35.225,-7.760325,110.37555,539.93,NaN,0.0,10.374194,,17 / 36,3845,2020-09-27 05:39:22:680
5.4684,-1.8627,8.6658,6.0034,-2.0305,7.4838,-0.0848,-0.0579,-0.001,21.0,49.33,-5.01,-8.59,270.0,11.95,-38.74,2.0,35.225,-7.760325,110.37555,539.93,NaN,0.0,10.374194,,17 / 36,3855,2020-09-27 05:39:22:690
5.4684,-1.8627,8.6658,6.0034,-2.0305,7.4838,-0.0848,-0.0579,-0.001,21.0,49.33,-5.01,-8.59,270.0,11.95,-38.74,2.0,35.225,-7.760325,110.37555,539.93,NaN,0.0,10.374194,,17 / 36,3865,2020-09-27 05:39:22:700
5.4684,-1.8627,8.6658,6.0034,-2.0305,7.4838,-0.0848,-0.0579,-0.001,21.0,49.33,-5.01,-8.59,270.0,11.95,-38.74,2.0,37.433,-7.760325,110.37555,539.93,NaN,0.0,10.374194,,17 / 36,3875,2020-09-27 05:39:22:710
5.4684,-1.8627,8.6658,6.0034,-2.0305,7.4838,-0.0848,-0.0579,-0.001,21.0,49.33,-5.01,-8.59,270.0,11.95,-38.74,2.0,37.433,-7.760325,110.37555,539.93,NaN,0.0,10.374194,,17 / 36,3885,2020-09-27 05:39:22:720
5.4684,-1.8627,8.6658,5.7995,-1.9554,7.6624,-0.3654,0.2629,0.3234,21.0,49.33,-5.01,-8.59,270.0,11.95,-38.74,2.0,37.433,-7.760325,110.37555,539.93,NaN,0.0,10.374194,,17 / 36,3895,2020-09-27 05:39:22:730
5.4684,-1.8627,8.6658,5.7995,-1.9554,7.6624,-0.3654,0.2629,0.3234,21.0,49.33,-5.01,-8.59,270.0,11.95,-38.74,2.0,37.433,-7.760325,110.37555,539.93,NaN,0.0,10.374194,,17 / 36,3905,2020-09-27 05:39:22:740
5.4684,-1.8627,8.6658,5.7995,-1.9554,7.6624,-0.3654,0.2629,0.3234,21.0,49.33,-5.01,-8.59,270.0,11.95,-38.74,2.0,37.433,-7.760325,110.37555,539.93,NaN,0.0,10.374194,,17 / 36,3916,2020-09-27 05:39:22:751
5.4684,-1.8627,8.6658,5.7995,-1.9554,7.6624,-0.3654,0.2629,0.3234,21.0,49.33,-5.01,-8.59,270.0,11.95,-38.74,2.0,37.433,-7.760325,110.37555,539.93,NaN,0.0,10.374194,,17 / 36,3925,2020-09-27 05:39:22:760
5.4684,-1.8627,8.6658,5.7995,-1.9554,7.6624,-0.3654,0.2629,0.3234,21.0,49.33,-5.01,-8.59,270.0,11.95,-38.74,2.0,37.433,-7.760325,110.37555,539.93,NaN,0.0,10.374194,,17 / 36,3935,2020-09-27 05:39:22:770
5.4684,-1.8627,8.6658,5.7995,-1.9554,7.6624,-0.3654,0.2629,0.3234,21.0,49.33,-5.01,-8.59,270.0,11.95,-38.74,2.0,37.433,-7.760325,110.37555,539.93,NaN,0.0,10.374194,,17 / 36,3945,2020-09-27 05:39:22:780
5.4684,-1.8627,8.6658,5.7995,-1.9554,7.6624,-0.3654,0.2629,0.3234,21.0,49.33,-5.01,-8.59,270.0,11.95,-38.74,2.0,37.433,-7.760325,110.37555,539.93,NaN,0.0,10.374194,,17 / 36,3954,2020-09-27 05:39:22:789
5.4684,-1.8627,8.6658,5.7995,-1.9554,7.6624,-0.3654,0.2629,0.3234,21.0,49.33,-5.01,-8.59,270.0,11.95,-38.74,2.0,37.433,-7.760325,110.37555,539.93,NaN,0.0,10.374194,,17 / 36,3965,2020-09-27 05:39:22:800
5.4684,-1.8627,8.6658,5.7995,-1.9554,7.6624,-0.3654,0.2629,0.3234,21.0,47.21,-5.83,-4.78,268.56,11.5,-37.12,2.0,37.433,-7.760325,110.37555,539.93,NaN,0.0,10.374194,,17 / 36,3975,2020-09-27 05:39:22:810
5.1044,-2.1212,8.4503,5.7995,-1.9554,7.6624,-0.3654,0.2629,0.3234,21.0,47.21,-5.83,-4.78,268.56,11.5,-37.12,2.0,37.433,-7.760325,110.37555,539.93,NaN,0.0,10.374194,,17 / 36,3985,2020-09-27 05:39:22:820
5.1044,-2.1212,8.4503,5.7995,-1.9554,7.6624,-0.3654,0.2629,0.3234,21.0,47.21,-5.83,-4.78,268.56,11.5,-37.12,2.0,37.433,-7.760325,110.37555,539.93,NaN,0.0,10.374194,,17 / 36,3995,2020-09-27 05:39:22:830
5.1044,-2.1212,8.4503,5.7995,-1.9554,7.6624,-0.3654,0.2629,0.3234,21.0,47.21,-5.83,-4.78,268.56,11.5,-37.12,2.0,37.433,-7.760325,110.37555,539.93,NaN,0.0,10.374194,,17 / 36,4005,2020-09-27 05:39:22:840
5.1044,-2.1212,8.4503,5.5593,-1.991,7.8295,-0.6104,-0.0715,0.429,21.0,47.21,-5.83,-4.78,268.56,11.5,-37.12,2.0,37.433,-7.760325,110.37555,539.93,NaN,0.0,10.374194,,17 / 36,4016,2020-09-27 05:39:22:851
5.1044,-2.1212,8.4503,5.5593,-1.991,7.8295,-0.6104,-0.0715,0.429,21.0,47.21,-5.83,-4.78,268.56,11.5,-37.12,2.0,37.433,-7.760325,110.37555,539.93,NaN,0.0,10.374194,,17 / 36,4025,2020-09-27 05:39:22:860
5.1044,-2.1212,8.4503,5.5593,-1.991,7.8295,-0.6104,-0.0715,0.429,21.0,47.21,-5.83,-4.78,268.56,11.5,-37.12,2.0,37.433,-7.760325,110.37555,539.93,NaN,0.0,10.374194,,17 / 36,4036,2020-09-27 05:39:22:871
5.1044,-2.1212,8.4503,5.5593,-1.991,7.8295,-0.6104,-0.0715,0.429,21.0,47.21,-5.83,-4.78,268.56,11.5,-37.12,2.0,37.433,-7.760325,110.37555,539.93,NaN,0.0,10.374194,,17 / 36,4045,2020-09-27 05:39:22:880
5.1044,-2.1212,8.4503,5.5593,-1.991,7.8295,-0.6104,-0.0715,0.429,21.0,47.21,-5.83,-4.78,268.56,11.5,-37.12,2.0,37.433,-7.760325,110.37555,539.93,NaN,0.0,10.374194,,17 / 36,4056,2020-09-27 05:39:22:891
5.1044,-2.1212,8.4503,5.5593,-1.991,7.8295,-0.6104,-0.0715,0.429,21.0,47.21,-5.83,-4.78,268.56,11.5,-37.12,2.0,37.433,-7.760331,110.37555,543.66,NaN,0.0,10.374194,,17 / 36,4065,2020-09-27 05:39:22:900
5.1044,-2.1212,8.4503,5.5593,-1.991,7.8295,-0.6104,-0.0715,0.429,21.0,47.21,-5.83,-4.78,268.56,11.5,-37.12,2.0,37.433,-7.760331,110.37555,543.66,NaN,0.0,10.374194,,17 / 36,4074,2020-09-27 05:39:22:909
5.1044,-2.1212,8.4503,5.5593,-1.991,7.8295,-0.6104,-0.0715,0.429,21.0,48.44,-6.33,-1.05,269.42,11.71,-35.38,2.0,37.433,-7.760331,110.37555,543.66,NaN,0.0,10.374194,,17 / 36,4085,2020-09-27 05:39:22:920
5.1044,-2.1212,8.4503,5.5593,-1.991,7.8295,-0.6104,-0.0715,0.429,21.0,48.44,-6.33,-1.05,269.42,11.71,-35.38,2.0,37.433,-7.760331,110.37555,543.66,NaN,0.0,10.374194,,17 / 36,4094,2020-09-27 05:39:22:929
5.1044,-2.1212,8.4503,5.5593,-1.991,7.8295,-0.6104,-0.0715,0.429,21.0,48.44,-6.33,-1.05,269.42,11.71,-35.38,2.0,37.433,-7.760331,110.37555,543.66,NaN,0.0,10.374194,,17 / 36,4105,2020-09-27 05:39:22:940
4.5777,-2.1165,8.4503,5.5593,-1.991,7.8295,-0.6104,-0.0715,0.429,21.0,48.44,-6.33,-1.05,269.42,11.71,-35.38,2.0,37.433,-7.760331,110.37555,543.66,NaN,0.0,10.374194,,17 / 36,4115,2020-09-27 05:39:22:950
4.5777,-2.1165,8.4503,5.5593,-1.991,7.8295,-0.6104,-0.0715,0.429,21.0,48.44,-6.33,-1.05,269.42,11.71,-35.38,2.0,37.433,-7.760331,110.37555,543.66,NaN,0.0,10.374194,,17 / 36,4125,2020-09-27 05:39:22:960
4.5777,-2.1165,8.4503,5.5593,-1.991,7.8295,-0.6104,-0.0715,0.429,21.0,48.44,-6.33,-1.05,269.42,11.71,-35.38,2.0,37.433,-7.760331,110.37555,543.66,NaN,0.0,10.374194,,17 / 36,4135,2020-09-27 05:39:22:970
4.5777,-2.1165,8.4503,5.5593,-1.991,7.8295,-0.6104,-0.0715,0.429,21.0,48.44,-6.33,-1.05,269.42,11.71,-35.38,2.0,37.433,-7.760331,110.37555,543.66,NaN,0.0,10.374194,,17 / 36,4145,2020-09-27 05:39:22:980
4.5777,-2.1165,8.4503,5.5593,-1.991,7.8295,-0.6104,-0.0715,0.429,21.0,48.44,-6.33,-1.05,269.42,11.71,-35.38,2.0,37.433,-7.760331,110.37555,543.66,NaN,0.0,10.374194,,17 / 36,4155,2020-09-27 05:39:22:990
4.5777,-2.1165,8.4503,5.1953,-2.0214,8.068,-0.7471,0.0027,0.0158,21.0,48.44,-6.33,-1.05,269.42,11.71,-35.38,2.0,37.433,-7.760331,110.37555,543.66,NaN,0.0,10.374194,,17 / 36,4165,2020-09-27 05:39:23:000
4.5777,-2.1165,8.4503,5.1953,-2.0214,8.068,-0.7471,0.0027,0.0158,21.0,48.44,-6.33,-1.05,269.42,11.71,-35.38,2.0,37.433,-7.760331,110.37555,543.66,NaN,0.0,10.374194,,17 / 36,4175,2020-09-27 05:39:23:010
4.5777,-2.1165,8.4503,5.1953,-2.0214,8.068,-0.7471,0.0027,0.0158,21.0,48.44,-6.33,-1.05,269.42,11.71,-35.38,2.0,37.433,-7.760331,110.37555,543.66,NaN,0.0,10.374194,,17 / 36,4185,2020-09-27 05:39:23:020
4.5777,-2.1165,8.4503,5.1953,-2.0214,8.068,-0.7471,0.0027,0.0158,21.0,48.44,-6.33,-1.05,269.42,11.71,-35.38,2.0,37.011,-7.760331,110.37555,543.66,NaN,0.0,10.374194,,17 / 36,4196,2020-09-27 05:39:23:031
4.5777,-2.1165,8.4503,5.1953,-2.0214,8.068,-0.7471,0.0027,0.0158,21.0,48.44,-6.33,-1.05,269.42,11.71,-35.38,2.0,37.011,-7.760331,110.37555,543.66,NaN,0.0,10.374194,,17 / 36,4205,2020-09-27 05:39:23:040
4.5777,-2.1165,8.4503,5.1953,-2.0214,8.068,-0.7471,0.0027,0.0158,21.0,48.44,-6.33,-1.05,269.42,11.71,-35.38,2.0,37.011,-7.760331,110.37555,543.66,NaN,0.0,10.374194,,17 / 36,4214,2020-09-27 05:39:23:049
4.5777,-2.1165,8.4503,5.1953,-2.0214,8.068,-0.7471,0.0027,0.0158,21.0,48.44,-6.33,-1.05,269.42,11.71,-35.38,2.0,37.011,-7.760331,110.37555,543.66,NaN,0.0,10.374194,,17 / 36,4225,2020-09-27 05:39:23:060
3.8403,-2.0877,9.092,5.1953,-2.0214,8.068,-0.7471,0.0027,0.0158,21.0,48.44,-6.33,-1.05,269.42,11.71,-35.38,2.0,37.011,-7.760331,110.37555,543.66,NaN,0.0,10.374194,,17 / 36,4235,2020-09-27 05:39:23:070
3.8403,-2.0877,9.092,5.1953,-2.0214,8.068,-0.7471,0.0027,0.0158,21.0,49.1,-7.32,2.8,268.75,11.9,-32.78,2.0,37.011,-7.760331,110.37555,543.66,NaN,0.0,10.374194,,17 / 36,4245,2020-09-27 05:39:23:080
3.8403,-2.0877,9.092,5.1953,-2.0214,8.068,-0.7471,0.0027,0.0158,21.0,49.1,-7.32,2.8,268.75,11.9,-32.78,2.0,37.011,-7.760331,110.37555,543.66,NaN,0.0,10.374194,,17 / 36,4254,2020-09-27 05:39:23:089
3.8403,-2.0877,9.092,5.1953,-2.0214,8.068,-0.7471,0.0027,0.0158,21.0,49.1,-7.32,2.8,268.75,11.9,-32.78,2.0,37.011,-7.760331,110.37555,543.66,NaN,0.0,10.374194,,17 / 36,4266,2020-09-27 05:39:23:101
3.8403,-2.0877,9.092,5.1953,-2.0214,8.068,-0.7471,0.0027,0.0158,21.0,49.1,-7.32,2.8,268.75,11.9,-32.78,2.0,37.011,-7.760331,110.37555,543.66,NaN,0.0,10.374194,,17 / 36,4275,2020-09-27 05:39:23:110
3.8403,-2.0877,9.092,4.6139,-2.0224,8.4138,-1.2357,0.031,0.4871,21.0,49.1,-7.32,2.8,268.75,11.9,-32.78,2.0,37.011,-7.760331,110.37555,543.66,NaN,0.0,10.374194,,17 / 36,4284,2020-09-27 05:39:23:119
3.8403,-2.0877,9.092,4.6139,-2.0224,8.4138,-1.2357,0.031,0.4871,21.0,49.1,-7.32,2.8,268.75,11.9,-32.78,2.0,37.011,-7.760331,110.37555,543.66,NaN,0.0,10.374194,,17 / 36,4295,2020-09-27 05:39:23:130
3.8403,-2.0877,9.092,4.6139,-2.0224,8.4138,-1.2357,0.031,0.4871,21.0,49.1,-7.32,2.8,268.75,11.9,-32.78,2.0,37.011,-7.760331,110.37555,543.66,NaN,0.0,10.374194,,17 / 36,4305,2020-09-27 05:39:23:140
3.8403,-2.0877,9.092,4.6139,-2.0224,8.4138,-1.2357,0.031,0.4871,21.0,49.1,-7.32,2.8,268.75,11.9,-32.78,2.0,37.011,-7.760331,110.37555,543.66,NaN,0.0,10.374194,,17 / 36,4315,2020-09-27 05:39:23:150
3.8403,-2.0877,9.092,4.6139,-2.0224,8.4138,-1.2357,0.031,0.4871,21.0,49.1,-7.32,2.8,268.75,11.9,-32.78,2.0,37.011,-7.760331,110.37555,543.66,NaN,0.0,10.374194,,17 / 36,4324,2020-09-27 05:39:23:159
3.8403,-2.0877,9.092,4.6139,-2.0224,8.4138,-1.2357,0.031,0.4871,21.0,49.1,-7.32,2.8,268.75,11.9,-32.78,2.0,37.011,-7.760331,110.37555,543.66,NaN,0.0,10.374194,,17 / 36,4334,2020-09-27 05:39:23:169
3.8403,-2.0877,9.092,4.6139,-2.0224,8.4138,-1.2357,0.031,0.4871,21.0,49.1,-7.32,2.8,268.75,11.9,-32.78,2.0,37.011,-7.760331,110.37555,543.66,NaN,0.0,10.374194,,17 / 36,4345,2020-09-27 05:39:23:180
3.8403,-2.0877,9.092,4.6139,-2.0224,8.4138,-1.2357,0.031,0.4871,21.0,44.67,-6.43,10.79,270.97,11.9,-28.74,2.0,37.011,-7.760331,110.37555,543.66,NaN,0.0,10.374194,,17 / 36,4355,2020-09-27 05:39:23:190
3.2082,-2.1979,9.7145,4.6139,-2.0224,8.4138,-1.2357,0.031,0.4871,21.0,44.67,-6.43,10.79,270.97,11.9,-28.74,2.0,37.011,-7.760331,110.37555,543.66,NaN,0.0,10.374194,,17 / 36,4365,2020-09-27 05:39:23:200
3.2082,-2.1979,9.7145,4.6139,-2.0224,8.4138,-1.2357,0.031,0.4871,21.0,44.67,-6.43,10.79,270.97,11.9,-28.74,2.0,37.011,-7.760331,110.37555,543.66,NaN,0.0,10.374194,,17 / 36,4375,2020-09-27 05:39:23:210
3.2082,-2.1979,9.7145,4.6139,-2.0224,8.4138,-1.2357,0.031,0.4871,21.0,44.67,-6.43,10.79,270.97,11.9,-28.74,2.0,37.011,-7.760331,110.37555,543.66,NaN,0.0,10.374194,,17 / 36,4385,2020-09-27 05:39:23:220
3.2082,-2.1979,9.7145,4.6139,-2.0224,8.4138,-1.2357,0.031,0.4871,21.0,44.67,-6.43,10.79,270.97,11.9,-28.74,2.0,37.011,-7.760331,110.37555,543.66,NaN,0.0,10.374194,,17 / 36,4395,2020-09-27 05:39:23:230
3.2082,-2.1979,9.7145,4.6139,-2.0224,8.4138,-1.2357,0.031,0.4871,21.0,44.67,-6.43,10.79,270.97,11.9,-28.74,2.0,37.011,-7.760331,110.37555,543.66,NaN,0.0,10.374194,,17 / 36,4405,2020-09-27 05:39:23:240
3.2082,-2.1979,9.7145,4.6139,-2.0224,8.4138,-1.2357,0.031,0.4871,21.0,44.67,-6.43,10.79,270.97,11.9,-28.74,2.0,37.011,-7.760331,110.37555,543.66,NaN,0.0,10.374194,,17 / 36,4415,2020-09-27 05:39:23:250
3.2082,-2.1979,9.7145,4.6139,-2.0224,8.4138,-1.2357,0.031,0.4871,21.0,44.67,-6.43,10.79,270.97,11.9,-28.74,2.0,37.011,-7.760331,110.37555,543.66,NaN,0.0,10.374194,,17 / 36,4425,2020-09-27 05:39:23:260
3.2082,-2.1979,9.7145,3.5967,-2.0668,8.8861,-1.2509,-0.0993,0.476,21.0,44.67,-6.43,10.79,270.97,11.9,-28.74,2.0,37.011,-7.760331,110.37555,543.66,NaN,0.0,10.374194,,17 / 36,4435,2020-09-27 05:39:23:270
3.2082,-2.1979,9.7145,3.5967,-2.0668,8.8861,-1.2509,-0.0993,0.476,23.0,44.67,-6.43,10.79,270.97,11.9,-28.74,2.0,37.011,-7.760331,110.37555,543.66,NaN,0.0,10.374194,,17 / 36,4445,2020-09-27 05:39:23:280
3.2082,-2.1979,9.7145,3.5967,-2.0668,8.8861,-1.2509,-0.0993,0.476,23.0,44.67,-6.43,10.79,270.97,11.9,-28.74,2.0,37.011,-7.760331,110.37555,543.66,NaN,0.0,10.374194,,17 / 36,4455,2020-09-27 05:39:23:290
3.2082,-2.1979,9.7145,3.5967,-2.0668,8.8861,-1.2509,-0.0993,0.476,23.0,44.67,-6.43,10.79,270.97,11.9,-28.74,2.0,37.011,-7.760331,110.37555,543.66,NaN,0.0,10.374194,,17 / 36,4465,2020-09-27 05:39:23:300
3.2082,-2.1979,9.7145,3.5967,-2.0668,8.8861,-1.2509,-0.0993,0.476,23.0,44.67,-6.43,10.79,270.97,11.9,-28.74,2.0,37.011,-7.760331,110.37555,543.66,NaN,0.0,10.374194,,17 / 36,4475,2020-09-27 05:39:23:310
1.6041,-2.0973,9.3362,3.5967,-2.0668,8.8861,-1.2509,-0.0993,0.476,23.0,44.67,-6.43,10.79,270.97,11.9,-28.74,2.0,37.011,-7.760331,110.37555,543.66,NaN,0.0,10.374194,,17 / 36,4485,2020-09-27 05:39:23:320
1.6041,-2.0973,9.3362,3.5967,-2.0668,8.8861,-1.2509,-0.0993,0.476,23.0,44.67,-6.43,10.79,270.97,11.9,-28.74,2.0,37.011,-7.760331,110.37555,543.66,NaN,0.0,10.374194,,17 / 36,4495,2020-09-27 05:39:23:330
1.6041,-2.0973,9.3362,3.5967,-2.0668,8.8861,-1.2509,-0.0993,0.476,23.0,44.67,-6.43,10.79,270.97,11.9,-28.74,2.0,37.011,-7.760331,110.37555,543.66,NaN,0.0,10.374194,,17 / 36,4505,2020-09-27 05:39:23:340
1.6041,-2.0973,9.3362,3.5967,-2.0668,8.8861,-1.2509,-0.0993,0.476,23.0,46.21,-5.62,14.95,271.09,12.17,-22.04,2.0,37.438,-7.760331,110.37555,543.66,NaN,0.0,10.374194,,17 / 36,4515,2020-09-27 05:39:23:350
1.6041,-2.0973,9.3362,3.5967,-2.0668,8.8861,-1.2509,-0.0993,0.476,23.0,46.21,-5.62,14.95,271.09,12.17,-22.04,2.0,37.438,-7.760331,110.37555,543.66,NaN,0.0,10.374194,,17 / 36,4525,2020-09-27 05:39:23:360
1.6041,-2.0973,9.3362,3.5967,-2.0668,8.8861,-1.2509,-0.0993,0.476,23.0,46.21,-5.62,14.95,271.09,12.17,-22.04,2.0,37.438,-7.760331,110.37555,543.66,NaN,0.0,10.374194,,17 / 36,4535,2020-09-27 05:39:23:370
1.6041,-2.0973,9.3362,3.0385,-2.0541,9.095,-2.2019,0.1425,0.3479,23.0,46.21,-5.62,14.95,271.09,12.17,-22.04,2.0,37.438,-7.760331,110.37555,543.66,NaN,0.0,10.374194,,17 / 36,4544,2020-09-27 05:39:23:379
1.6041,-2.0973,9.3362,3.0385,-2.0541,9.095,-2.2019,0.1425,0.3479,23.0,46.21,-5.62,14.95,271.09,12.17,-22.04,2.0,37.438,-7.760331,110.37555,543.66,NaN,0.0,10.374194,,17 / 36,4558,2020-09-27 05:39:23:393
1.6041,-2.0973,9.3362,3.0385,-2.0541,9.095,-2.2019,0.1425,0.3479,23.0,46.21,-5.62,14.95,271.09,12.17,-22.04,2.0,37.438,-7.760331,110.37555,543.66,NaN,0.0,10.374194,,17 / 36,4566,2020-09-27 05:39:23:401
1.6041,-2.0973,9.3362,3.0385,-2.0541,9.095,-2.2019,0.1425,0.3479,23.0,46.21,-5.62,14.95,271.09,12.17,-22.04,2.0,37.438,-7.760331,110.37555,543.66,NaN,0.0,10.374194,,17 / 36,4575,2020-09-27 05:39:23:410
1.6041,-2.0973,9.3362,3.0385,-2.0541,9.095,-2.2019,0.1425,0.3479,23.0,46.21,-5.62,14.95,271.09,12.17,-22.04,2.0,37.438,-7.760331,110.37555,543.66,NaN,0.0,10.374194,,17 / 36,4585,2020-09-27 05:39:23:420
1.6041,-2.0973,9.3362,3.0385,-2.0541,9.095,-2.2019,0.1425,0.3479,23.0,46.21,-5.62,14.95,271.09,12.17,-22.04,2.0,37.438,-7.760331,110.37555,543.66,NaN,0.0,10.374194,,17 / 36,4595,2020-09-27 05:39:23:430
1.6041,-2.0973,9.3362,3.0385,-2.0541,9.095,-2.2019,0.1425,0.3479,23.0,46.21,-5.62,14.95,271.09,12.17,-22.04,2.0,37.438,-7.760331,110.37555,543.66,NaN,0.0,10.374194,,17 / 36,4605,2020-09-27 05:39:23:440
0.7709,-2.0638,10.1837,3.0385,-2.0541,9.095,-2.2019,0.1425,0.3479,23.0,46.21,-5.62,14.95,271.09,12.17,-22.04,2.0,37.438,-7.760331,110.37555,543.66,NaN,0.0,10.374194,,17 / 36,4615,2020-09-27 05:39:23:450
0.7709,-2.0638,10.1837,3.0385,-2.0541,9.095,-2.2019,0.1425,0.3479,23.0,43.85,-5.86,18.58,271.33,12.09,-18.47,2.0,37.438,-7.760331,110.37555,543.66,NaN,0.0,10.374194,,17 / 36,4625,2020-09-27 05:39:23:460
0.7709,-2.0638,10.1837,3.0385,-2.0541,9.095,-2.2019,0.1425,0.3479,23.0,43.85,-5.86,18.58,271.33,12.09,-18.47,2.0,37.438,-7.760331,110.37555,543.66,NaN,0.0,10.374194,,17 / 36,4635,2020-09-27 05:39:23:470
0.7709,-2.0638,10.1837,3.0385,-2.0541,9.095,-2.2019,0.1425,0.3479,23.0,43.85,-5.86,18.58,271.33,12.09,-18.47,2.0,37.438,-7.760331,110.37555,543.66,NaN,0.0,10.374194,,17 / 36,4645,2020-09-27 05:39:23:480
0.7709,-2.0638,10.1837,3.0385,-2.0541,9.095,-2.2019,0.1425,0.3479,23.0,43.85,-5.86,18.58,271.33,12.09,-18.47,2.0,37.438,-7.760331,110.37555,543.66,NaN,0.0,10.374194,,17 / 36,4655,2020-09-27 05:39:23:490
0.7709,-2.0638,10.1837,3.0385,-2.0541,9.095,-2.2019,0.1425,0.3479,23.0,43.85,-5.86,18.58,271.33,12.09,-18.47,2.0,37.438,-7.760331,110.37555,543.66,NaN,0.0,10.374194,,17 / 36,4665,2020-09-27 05:39:23:500
0.7709,-2.0638,10.1837,3.0385,-2.0541,9.095,-2.2019,0.1425,0.3479,23.0,43.85,-5.86,18.58,271.33,12.09,-18.47,2.0,37.438,-7.760331,110.37555,543.66,NaN,0.0,10.374194,,17 / 36,4675,2020-09-27 05:39:23:510
0.7709,-2.0638,10.1837,3.0385,-2.0541,9.095,-2.2019,0.1425,0.3479,23.0,43.85,-5.86,18.58,271.33,12.09,-18.47,2.0,37.438,-7.760331,110.37555,543.66,NaN,0.0,10.374194,,17 / 36,4685,2020-09-27 05:39:23:520
0.7709,-2.0638,10.1837,3.0385,-2.0541,9.095,-2.2019,0.1425,0.3479,23.0,43.85,-5.86,18.58,271.33,12.09,-18.47,2.0,37.438,-7.760331,110.37555,543.66,NaN,0.0,10.374194,,17 / 36,4695,2020-09-27 05:39:23:530
0.7709,-2.0638,10.1837,1.7535,-1.9126,9.4571,-1.5064,0.402,-0.0387,23.0,43.85,-5.86,18.58,271.33,12.09,-18.47,2.0,37.438,-7.760331,110.37555,543.66,NaN,0.0,10.374194,,17 / 36,4705,2020-09-27 05:39:23:540
0.7709,-2.0638,10.1837,1.7535,-1.9126,9.4571,-1.5064,0.402,-0.0387,24.0,43.85,-5.86,18.58,271.33,12.09,-18.47,2.0,37.438,-7.760331,110.37555,543.66,NaN,0.0,10.374194,,17 / 36,4715,2020-09-27 05:39:23:550
0.7709,-2.0638,10.1837,1.7535,-1.9126,9.4571,-1.5064,0.402,-0.0387,24.0,43.85,-5.86,18.58,271.33,12.09,-18.47,2.0,37.438,-7.760331,110.37555,543.66,NaN,0.0,10.374194,,17 / 36,4725,2020-09-27 05:39:23:560
0.7709,-2.0638,10.1837,1.7535,-1.9126,9.4571,-1.5064,0.402,-0.0387,24.0,43.85,-5.86,18.58,271.33,12.09,-18.47,2.0,37.438,-7.760331,110.37555,543.66,NaN,0.0,10.374194,,17 / 36,4735,2020-09-27 05:39:23:570
0.3783,-1.47,9.839,1.7535,-1.9126,9.4571,-1.5064,0.402,-0.0387,24.0,43.85,-5.86,18.58,271.33,12.09,-18.47,2.0,37.438,-7.760331,110.37555,543.66,NaN,0.0,10.374194,,17 / 36,4745,2020-09-27 05:39:23:580
0.3783,-1.47,9.839,1.7535,-1.9126,9.4571,-1.5064,0.402,-0.0387,24.0,43.85,-5.86,18.58,271.33,12.09,-18.47,2.0,37.438,-7.760331,110.37555,543.66,NaN,0.0,10.374194,,17 / 36,4754,2020-09-27 05:39:23:589
0.3783,-1.47,9.839,1.7535,-1.9126,9.4571,-1.5064,0.402,-0.0387,24.0,43.85,-5.86,18.58,271.33,12.09,-18.47,2.0,37.438,-7.760331,110.37555,543.66,NaN,0.0,10.374194,,17 / 36,4766,2020-09-27 05:39:23:601
0.3783,-1.47,9.839,1.7535,-1.9126,9.4571,-1.5064,0.402,-0.0387,24.0,43.03,-6.82,19.89,267.77,11.25,-10.5,2.0,37.438,-7.760331,110.37555,543.66,NaN,0.0,10.374194,,17 / 36,4775,2020-09-27 05:39:23:610
0.3783,-1.47,9.839,1.7535,-1.9126,9.4571,-1.5064,0.402,-0.0387,24.0,43.03,-6.82,19.89,267.77,11.25,-10.5,2.0,37.438,-7.760331,110.37555,543.66,NaN,0.0,10.374194,,17 / 36,4785,2020-09-27 05:39:23:620
0.3783,-1.47,9.839,1.7535,-1.9126,9.4571,-1.5064,0.402,-0.0387,24.0,43.03,-6.82,19.89,267.77,11.25,-10.5,2.0,37.438,-7.760331,110.37555,543.66,NaN,0.0,10.374194,,17 / 36,4795,2020-09-27 05:39:23:630
0.3783,-1.47,9.839,1.7535,-1.9126,9.4571,-1.5064,0.402,-0.0387,24.0,43.03,-6.82,19.89,267.77,11.25,-10.5,2.0,37.438,-7.760331,110.37555,543.66,NaN,0.0,10.374194,,17 / 36,4806,2020-09-27 05:39:23:641
0.3783,-1.47,9.839,1.2228,-1.7651,9.5687,-0.8744,0.093,0.4802,24.0,43.03,-6.82,19.89,267.77,11.25,-10.5,2.0,37.102,-7.760331,110.37555,543.66,NaN,0.0,10.374194,,17 / 36,4815,2020-09-27 05:39:23:650
0.3783,-1.47,9.839,1.2228,-1.7651,9.5687,-0.8744,0.093,0.4802,24.0,43.03,-6.82,19.89,267.77,11.25,-10.5,2.0,37.102,-7.760331,110.37555,543.66,NaN,0.0,10.374194,,17 / 36,4825,2020-09-27 05:39:23:660
0.3783,-1.47,9.839,1.2228,-1.7651,9.5687,-0.8744,0.093,0.4802,24.0,43.03,-6.82,19.89,267.77,11.25,-10.5,2.0,37.102,-7.760331,110.37555,543.66,NaN,0.0,10.374194,,17 / 36,4835,2020-09-27 05:39:23:670
0.3783,-1.47,9.839,1.2228,-1.7651,9.5687,-0.8744,0.093,0.4802,24.0,43.03,-6.82,19.89,267.77,11.25,-10.5,2.0,37.102,-7.760331,110.37555,543.66,NaN,0.0,10.374194,,17 / 36,4845,2020-09-27 05:39:23:680
0.3783,-1.47,9.839,1.2228,-1.7651,9.5687,-0.8744,0.093,0.4802,24.0,43.03,-6.82,19.89,267.77,11.25,-10.5,2.0,37.102,-7.760331,110.37555,543.66,NaN,0.0,10.374194,,17 / 36,4856,2020-09-27 05:39:23:691
-0.0766,-1.6807,10.1933,1.2228,-1.7651,9.5687,-0.8744,0.093,0.4802,24.0,43.03,-6.82,19.89,267.77,11.25,-10.5,2.0,37.102,-7.760331,110.37555,543.66,NaN,0.0,10.374194,,17 / 36,4865,2020-09-27 05:39:23:700
-0.0766,-1.6807,10.1933,1.2228,-1.7651,9.5687,-0.8744,0.093,0.4802,24.0,43.03,-6.82,19.89,267.77,11.25,-10.5,2.0,37.102,-7.760331,110.37555,543.66,NaN,0.0,10.374194,,17 / 36,4875,2020-09-27 05:39:23:710
-0.0766,-1.6807,10.1933,1.2228,-1.7651,9.5687,-0.8744,0.093,0.4802,24.0,43.03,-6.82,19.89,267.77,11.25,-10.5,2.0,37.102,-7.760331,110.37555,543.66,NaN,0.0,10.374194,,17 / 36,4885,2020-09-27 05:39:23:720
-0.0766,-1.6807,10.1933,1.2228,-1.7651,9.5687,-0.8744,0.093,0.4802,24.0,42.06,-5.17,22.86,270.22,10.37,-7.28,2.0,37.102,-7.760331,110.37555,543.66,NaN,0.0,10.374194,,17 / 36,4895,2020-09-27 05:39:23:730
-0.0766,-1.6807,10.1933,1.2228,-1.7651,9.5687,-0.8744,0.093,0.4802,24.0,42.06,-5.17,22.86,270.22,10.37,-7.28,2.0,37.102,-7.760331,110.37555,543.66,NaN,0.0,10.374194,,17 / 36,4905,2020-09-27 05:39:23:740
-0.0766,-1.6807,10.1933,1.2228,-1.7651,9.5687,-0.8744,0.093,0.4802,24.0,42.06,-5.17,22.86,270.22,10.37,-7.28,2.0,37.102,-7.760331,110.37555,543.66,NaN,0.0,10.374194,,17 / 36,4915,2020-09-27 05:39:23:750
-0.0766,-1.6807,10.1933,1.2228,-1.7651,9.5687,-0.8744,0.093,0.4802,24.0,42.06,-5.17,22.86,270.22,10.37,-7.28,2.0,37.102,-7.760331,110.37555,543.66,NaN,0.0,10.374194,,17 / 36,4924,2020-09-27 05:39:23:759
-0.0766,-1.6807,10.1933,1.2228,-1.7651,9.5687,-0.8744,0.093,0.4802,24.0,42.06,-5.17,22.86,270.22,10.37,-7.28,2.0,37.102,-7.760331,110.37555,543.66,NaN,0.0,10.374194,,17 / 36,4934,2020-09-27 05:39:23:769
-0.0766,-1.6807,10.1933,1.2228,-1.7651,9.5687,-0.8744,0.093,0.4802,24.0,42.06,-5.17,22.86,270.22,10.37,-7.28,2.0,37.102,-7.760331,110.37555,543.66,NaN,0.0,10.374194,,17 / 36,4945,2020-09-27 05:39:23:780
-0.0766,-1.6807,10.1933,1.2228,-1.7651,9.5687,-0.8744,0.093,0.4802,24.0,42.06,-5.17,22.86,270.22,10.37,-7.28,2.0,37.102,-7.760331,110.37555,543.66,NaN,0.0,10.374194,,17 / 36,4955,2020-09-27 05:39:23:790
-0.0766,-1.6807,10.1933,1.2228,-1.7651,9.5687,-0.8744,0.093,0.4802,24.0,42.06,-5.17,22.86,270.22,10.37,-7.28,2.0,37.102,-7.760331,110.37555,543.66,NaN,0.0,10.374194,,17 / 36,4965,2020-09-27 05:39:23:800
-0.0766,-1.6807,10.1933,0.819,-1.587,9.6427,-0.517,0.4787,-0.2297,26.0,42.06,-5.17,22.86,270.22,10.37,-7.28,2.0,37.102,-7.760331,110.37555,543.66,NaN,0.0,10.374194,,17 / 36,4975,2020-09-27 05:39:23:810
-0.0766,-1.6807,10.1933,0.819,-1.587,9.6427,-0.517,0.4787,-0.2297,26.0,42.06,-5.17,22.86,270.22,10.37,-7.28,2.0,37.102,-7.760331,110.37555,543.66,NaN,0.0,10.374194,,17 / 36,4986,2020-09-27 05:39:23:821
0.1628,-1.0774,10.1742,0.819,-1.587,9.6427,-0.517,0.4787,-0.2297,26.0,42.06,-5.17,22.86,270.22,10.37,-7.28,2.0,37.102,-7.760331,110.37555,543.66,NaN,0.0,10.374194,,17 / 36,4994,2020-09-27 05:39:23:829
0.1628,-1.0774,10.1742,0.819,-1.587,9.6427,-0.517,0.4787,-0.2297,26.0,42.06,-5.17,22.86,270.22,10.37,-7.28,2.0,37.102,-7.760331,110.37555,543.66,NaN,0.0,10.374194,,17 / 36,5006,2020-09-27 05:39:23:841
0.1628,-1.0774,10.1742,0.819,-1.587,9.6427,-0.517,0.4787,-0.2297,26.0,42.06,-5.17,22.86,270.22,10.37,-7.28,2.0,37.102,-7.760331,110.37555,543.66,NaN,0.0,10.374194,,17 / 36,5015,2020-09-27 05:39:23:850
0.1628,-1.0774,10.1742,0.819,-1.587,9.6427,-0.517,0.4787,-0.2297,26.0,42.06,-5.17,22.86,270.22,10.37,-7.28,2.0,37.102,-7.760331,110.37555,543.66,NaN,0.0,10.374194,,17 / 36,5025,2020-09-27 05:39:23:860
0.1628,-1.0774,10.1742,0.819,-1.587,9.6427,-0.517,0.4787,-0.2297,26.0,42.06,-5.17,22.86,270.22,10.37,-7.28,2.0,37.102,-7.760331,110.37555,543.66,NaN,0.0,10.374194,,17 / 37,5035,2020-09-27 05:39:23:870
0.1628,-1.0774,10.1742,0.819,-1.587,9.6427,-0.517,0.4787,-0.2297,26.0,43.41,-4.1,22.09,270.26,9.31,-4.85,2.0,37.102,-7.760331,110.37555,543.66,NaN,0.0,10.374194,,17 / 37,5050,2020-09-27 05:39:23:885
0.1628,-1.0774,10.1742,0.819,-1.587,9.6427,-0.517,0.4787,-0.2297,26.0,43.41,-4.1,22.09,270.26,9.31,-4.85,2.0,37.102,-7.760331,110.37555,543.66,NaN,0.0,10.374194,,17 / 37,5055,2020-09-27 05:39:23:890
0.1628,-1.0774,10.1742,0.819,-1.587,9.6427,-0.517,0.4787,-0.2297,26.0,43.41,-4.1,22.09,270.26,9.31,-4.85,2.0,37.102,-7.760331,110.37555,543.66,NaN,0.0,10.374194,,17 / 37,5065,2020-09-27 05:39:23:900
0.1628,-1.0774,10.1742,0.819,-1.587,9.6427,-0.517,0.4787,-0.2297,26.0,43.41,-4.1,22.09,270.26,9.31,-4.85,2.0,37.102,-7.760331,110.37555,543.66,NaN,0.0,10.374194,,17 / 37,5075,2020-09-27 05:39:23:910
0.1628,-1.0774,10.1742,0.5106,-1.3765,9.6961,-0.638,0.3806,0.1644,26.0,43.41,-4.1,22.09,270.26,9.31,-4.85,2.0,37.102,-7.760331,110.37555,543.66,NaN,0.0,10.374194,,17 / 37,5084,2020-09-27 05:39:23:919
0.1628,-1.0774,10.1742,0.5106,-1.3765,9.6961,-0.638,0.3806,0.1644,26.0,43.41,-4.1,22.09,270.26,9.31,-4.85,2.0,37.102,-7.760331,110.37555,543.66,NaN,0.0,10.374194,,17 / 37,5095,2020-09-27 05:39:23:930
0.1628,-1.0774,10.1742,0.5106,-1.3765,9.6961,-0.638,0.3806,0.1644,26.0,43.41,-4.1,22.09,270.26,9.31,-4.85,2.0,37.102,-7.760331,110.37555,543.66,NaN,0.0,10.374194,,17 / 37,5106,2020-09-27 05:39:23:941
0.1628,-1.0774,10.1742,0.5106,-1.3765,9.6961,-0.638,0.3806,0.1644,26.0,43.41,-4.1,22.09,270.26,9.31,-4.85,2.0,37.354,-7.760331,110.37555,543.66,NaN,0.0,10.374194,,17 / 37,5115,2020-09-27 05:39:23:950
-0.1484,-0.9481,10.0784,0.5106,-1.3765,9.6961,-0.638,0.3806,0.1644,26.0,43.41,-4.1,22.09,270.26,9.31,-4.85,2.0,37.354,-7.760331,110.37555,543.66,NaN,0.0,10.374194,,17 / 37,5125,2020-09-27 05:39:23:960
-0.1484,-0.9481,10.0784,0.5106,-1.3765,9.6961,-0.638,0.3806,0.1644,26.0,43.41,-4.1,22.09,270.26,9.31,-4.85,2.0,37.354,-7.760331,110.37555,543.66,NaN,0.0,10.374194,,17 / 37,5135,2020-09-27 05:39:23:970
-0.1484,-0.9481,10.0784,0.5106,-1.3765,9.6961,-0.638,0.3806,0.1644,26.0,43.41,-4.1,22.09,270.26,9.31,-4.85,2.0,37.354,-7.760331,110.37555,543.66,NaN,0.0,10.374194,,17 / 37,5145,2020-09-27 05:39:23:980
-0.1484,-0.9481,10.0784,0.5106,-1.3765,9.6961,-0.638,0.3806,0.1644,26.0,43.41,-4.1,22.09,270.26,9.31,-4.85,2.0,37.354,-7.760331,110.37555,543.66,NaN,0.0,10.374194,,17 / 37,5155,2020-09-27 05:39:23:990
-0.1484,-0.9481,10.0784,0.5106,-1.3765,9.6961,-0.638,0.3806,0.1644,26.0,45.32,-3.86,20.05,268.92,8.07,-3.01,2.0,37.354,-7.760331,110.37555,543.66,NaN,0.0,10.374194,,17 / 37,5165,2020-09-27 05:39:24:000
-0.1484,-0.9481,10.0784,0.5106,-1.3765,9.6961,-0.638,0.3806,0.1644,26.0,45.32,-3.86,20.05,268.92,8.07,-3.01,2.0,37.354,-7.760331,110.37555,543.66,NaN,0.0,10.374194,,17 / 37,5175,2020-09-27 05:39:24:010
-0.1484,-0.9481,10.0784,0.5106,-1.3765,9.6961,-0.638,0.3806,0.1644,26.0,45.32,-3.86,20.05,268.92,8.07,-3.01,2.0,37.354,-7.760331,110.37555,543.66,NaN,0.0,10.374194,,17 / 37,5184,2020-09-27 05:39:24:019
-0.1484,-0.9481,10.0784,0.5106,-1.3765,9.6961,-0.638,0.3806,0.1644,26.0,45.32,-3.86,20.05,268.92,8.07,-3.01,2.0,37.354,-7.760331,110.37555,543.66,NaN,0.0,10.374194,,17 / 37,5195,2020-09-27 05:39:24:030
-0.1484,-0.9481,10.0784,0.5106,-1.3765,9.6961,-0.638,0.3806,0.1644,26.0,45.32,-3.86,20.05,268.92,8.07,-3.01,2.0,37.354,-7.760331,110.37555,543.66,NaN,0.0,10.374194,,17 / 37,5205,2020-09-27 05:39:24:040
-0.1484,-0.9481,10.0784,0.5106,-1.3765,9.6961,-0.638,0.3806,0.1644,26.0,45.32,-3.86,20.05,268.92,8.07,-3.01,2.0,37.354,-7.760331,110.37555,543.66,NaN,0.0,10.374194,,17 / 37,5214,2020-09-27 05:39:24:049
-0.1484,-0.9481,10.0784,0.5106,-1.3765,9.6961,-0.638,0.3806,0.1644,26.0,45.32,-3.86,20.05,268.92,8.07,-3.01,2.0,37.354,-7.760331,110.37555,543.66,NaN,0.0,10.374194,,17 / 37,5226,2020-09-27 05:39:24:061
-0.1484,-0.9481,10.0784,0.5106,-1.3765,9.6961,-0.638,0.3806,0.1644,26.0,45.32,-3.86,20.05,268.92,8.07,-3.01,2.0,37.354,-7.760331,110.37555,543.66,NaN,0.0,10.374194,,17 / 37,5235,2020-09-27 05:39:24:070
-0.4884,-0.407,9.0776,0.205,-1.1382,9.7382,-0.7199,0.4769,0.0589,30.0,45.32,-3.86,20.05,268.92,8.07,-3.01,2.0,37.354,-7.760331,110.37555,543.66,NaN,0.0,10.374194,,17 / 37,5244,2020-09-27 05:39:24:079
-0.4884,-0.407,9.0776,0.205,-1.1382,9.7382,-0.7199,0.4769,0.0589,30.0,45.32,-3.86,20.05,268.92,8.07,-3.01,2.0,37.354,-7.760331,110.37555,543.66,NaN,0.0,10.374194,,17 / 37,5255,2020-09-27 05:39:24:090
-0.4884,-0.407,9.0776,0.205,-1.1382,9.7382,-0.7199,0.4769,0.0589,30.0,45.32,-3.86,20.05,268.92,8.07,-3.01,2.0,37.354,-7.760331,110.37555,543.66,NaN,0.0,10.374194,,17 / 37,5265,2020-09-27 05:39:24:100
-0.4884,-0.407,9.0776,0.205,-1.1382,9.7382,-0.7199,0.4769,0.0589,30.0,45.32,-3.86,20.05,268.92,8.07,-3.01,2.0,37.354,-7.760331,110.37555,543.66,NaN,0.0,10.374194,,17 / 37,5275,2020-09-27 05:39:24:110
-0.4884,-0.407,9.0776,0.205,-1.1382,9.7382,-0.7199,0.4769,0.0589,30.0,45.32,-3.86,20.05,268.92,8.07,-3.01,2.0,37.354,-7.760331,110.37555,543.66,NaN,0.0,10.374194,,17 / 37,5285,2020-09-27 05:39:24:120
-0.4884,-0.407,9.0776,0.205,-1.1382,9.7382,-0.7199,0.4769,0.0589,30.0,45.32,-3.86,20.05,268.92,8.07,-3.01,2.0,37.354,-7.760331,110.37555,543.66,NaN,0.0,10.374194,,17 / 37,5295,2020-09-27 05:39:24:130
-0.4884,-0.407,9.0776,0.205,-1.1382,9.7382,-0.7199,0.4769,0.0589,30.0,45.32,-3.86,20.05,268.92,8.07,-3.01,2.0,37.354,-7.760331,110.37555,543.66,NaN,0.0,10.374194,,17 / 37,5304,2020-09-27 05:39:24:139
-0.4884,-0.407,9.0776,0.205,-1.1382,9.7382,-0.7199,0.4769,0.0589,30.0,42.85,-1.59,22.55,271.06,6.67,-1.21,2.0,37.354,-7.760331,110.37555,543.66,NaN,0.0,10.374194,,17 / 37,5315,2020-09-27 05:39:24:150
-0.4884,-0.407,9.0776,0.205,-1.1382,9.7382,-0.7199,0.4769,0.0589,30.0,42.85,-1.59,22.55,271.06,6.67,-1.21,2.0,37.354,-7.760331,110.37555,543.66,NaN,0.0,10.374194,,17 / 37,5325,2020-09-27 05:39:24:160
-0.4884,-0.407,9.0776,0.205,-1.1382,9.7382,-0.7199,0.4769,0.0589,30.0,42.85,-1.59,22.55,271.06,6.67,-1.21,2.0,37.354,-7.760331,110.37555,543.66,NaN,0.0,10.374194,,17 / 37,5335,2020-09-27 05:39:24:170
-0.4884,-0.407,9.0776,0.205,-1.1382,9.7382,-0.7199,0.4769,0.0589,30.0,42.85,-1.59,22.55,271.06,6.67,-1.21,2.0,37.354,-7.760331,110.37555,543.66,NaN,0.0,10.374194,,17 / 37,5345,2020-09-27 05:39:24:180
-0.4884,-0.407,9.0776,-0.0175,-0.7872,9.775,-0.3085,0.6299,-0.312,30.0,42.85,-1.59,22.55,271.06,6.67,-1.21,2.0,37.354,-7.760331,110.37555,543.66,NaN,0.0,10.374194,,17 / 37,5355,2020-09-27 05:39:24:190
-0.4884,-0.407,9.0776,-0.0175,-0.7872,9.775,-0.3085,0.6299,-0.312,30.0,42.85,-1.59,22.55,271.06,6.67,-1.21,2.0,37.354,-7.760331,110.37555,543.66,NaN,0.0,10.374194,,17 / 37,5365,2020-09-27 05:39:24:200
0.1101,-0.2203,9.8725,-0.0175,-0.7872,9.775,-0.3085,0.6299,-0.312,30.0,42.85,-1.59,22.55,271.06,6.67,-1.21,2.0,37.354,-7.760331,110.37555,543.66,NaN,0.0,10.374194,,17 / 37,5379,2020-09-27 05:39:24:214
0.1101,-0.2203,9.8725,-0.0175,-0.7872,9.775,-0.3085,0.6299,-0.312,30.0,42.85,-1.59,22.55,271.06,6.67,-1.21,2.0,37.354,-7.760331,110.37555,543.66,NaN,0.0,10.374194,,17 / 37,5385,2020-09-27 05:39:24:220
0.1101,-0.2203,9.8725,-0.0175,-0.7872,9.775,-0.3085,0.6299,-0.312,30.0,42.85,-1.59,22.55,271.06,6.67,-1.21,2.0,37.354,-7.760331,110.37555,543.66,NaN,0.0,10.374194,,17 / 37,5395,2020-09-27 05:39:24:230
0.1101,-0.2203,9.8725,-0.0175,-0.7872,9.775,-0.3085,0.6299,-0.312,30.0,42.85,-1.59,22.55,271.06,6.67,-1.21,2.0,37.354,-7.760331,110.37555,543.66,NaN,0.0,10.374194,,17 / 37,5406,2020-09-27 05:39:24:241
0.1101,-0.2203,9.8725,-0.0175,-0.7872,9.775,-0.3085,0.6299,-0.312,30.0,42.85,-1.59,22.55,271.06,6.67,-1.21,2.0,35.487,-7.760331,110.37555,543.66,NaN,0.0,10.374194,,17 / 37,5415,2020-09-27 05:39:24:250
0.1101,-0.2203,9.8725,-0.0175,-0.7872,9.775,-0.3085,0.6299,-0.312,30.0,42.85,-1.59,22.55,271.06,6.67,-1.21,2.0,35.487,-7.760331,110.37555,543.66,NaN,0.0,10.374194,,17 / 37,5428,2020-09-27 05:39:24:263
0.1101,-0.2203,9.8725,-0.0175,-0.7872,9.775,-0.3085,0.6299,-0.312,30.0,44.14,-1.62,21.55,269.7,4.6,0.1,2.0,35.487,-7.760331,110.37555,543.66,NaN,0.0,10.374194,,17 / 37,5436,2020-09-27 05:39:24:271
0.1101,-0.2203,9.8725,-0.0175,-0.7872,9.775,-0.3085,0.6299,-0.312,30.0,44.14,-1.62,21.55,269.7,4.6,0.1,2.0,35.487,-7.760331,110.37555,543.66,NaN,0.0,10.374194,,17 / 37,5448,2020-09-27 05:39:24:283
0.1101,-0.2203,9.8725,-0.0175,-0.7872,9.775,-0.3085,0.6299,-0.312,30.0,44.14,-1.62,21.55,269.7,4.6,0.1,2.0,35.487,-7.760331,110.37555,543.66,NaN,0.0,10.374194,,17 / 37,5460,2020-09-27 05:39:24:295
0.1101,-0.2203,9.8725,-0.0175,-0.7872,9.775,-0.3085,0.6299,-0.312,30.0,44.14,-1.62,21.55,269.7,4.6,0.1,2.0,35.487,-7.760331,110.37555,543.66,NaN,0.0,10.374194,,17 / 37,5465,2020-09-27 05:39:24:300
0.1101,-0.2203,9.8725,-0.0175,-0.7872,9.775,-0.3085,0.6299,-0.312,30.0,44.14,-1.62,21.55,269.7,4.6,0.1,2.0,35.487,-7.760331,110.37555,543.66,NaN,0.0,10.374194,,17 / 37,5474,2020-09-27 05:39:24:309
0.1101,-0.2203,9.8725,-0.0175,-0.7872,9.775,-0.3085,0.6299,-0.312,30.0,44.14,-1.62,21.55,269.7,4.6,0.1,2.0,35.487,-7.760331,110.37555,543.66,NaN,0.0,10.374194,,17 / 37,5485,2020-09-27 05:39:24:320
0.1101,-0.2203,9.8725,-0.0175,-0.7872,9.775,-0.3085,0.6299,-0.312,30.0,44.14,-1.62,21.55,269.7,4.6,0.1,2.0,35.487,-7.760331,110.37555,543.66,NaN,0.0,10.374194,,17 / 37,5495,2020-09-27 05:39:24:330
0.1006,-0.0239,9.8438,-0.0175,-0.7872,9.775,-0.3085,0.6299,-0.312,30.0,44.14,-1.62,21.55,269.7,4.6,0.1,2.0,35.487,-7.760331,110.37555,543.66,NaN,0.0,10.374194,,17 / 37,5505,2020-09-27 05:39:24:340
0.1006,-0.0239,9.8438,0.1209,-0.4273,9.7966,0.0954,0.5922,-0.0659,33.0,44.14,-1.62,21.55,269.7,4.6,0.1,2.0,35.487,-7.760331,110.37555,543.66,NaN,0.0,10.374194,,17 / 37,5515,2020-09-27 05:39:24:350
0.1006,-0.0239,9.8438,0.1209,-0.4273,9.7966,0.0954,0.5922,-0.0659,33.0,44.14,-1.62,21.55,269.7,4.6,0.1,2.0,35.487,-7.760331,110.37555,543.66,NaN,0.0,10.374194,,17 / 37,5524,2020-09-27 05:39:24:359
0.1006,-0.0239,9.8438,0.1209,-0.4273,9.7966,0.0954,0.5922,-0.0659,33.0,44.14,-1.62,21.55,269.7,4.6,0.1,2.0,35.487,-7.760331,110.37555,543.66,NaN,0.0,10.374194,,17 / 37,5535,2020-09-27 05:39:24:370
0.1006,-0.0239,9.8438,0.1209,-0.4273,9.7966,0.0954,0.5922,-0.0659,33.0,44.14,-1.62,21.55,269.7,4.6,0.1,2.0,35.487,-7.760331,110.37555,543.66,NaN,0.0,10.374194,,17 / 37,5545,2020-09-27 05:39:24:380
0.1006,-0.0239,9.8438,0.1209,-0.4273,9.7966,0.0954,0.5922,-0.0659,33.0,44.14,-1.62,21.55,269.7,4.6,0.1,2.0,35.487,-7.760331,110.37555,543.66,NaN,0.0,10.374194,,17 / 37,5555,2020-09-27 05:39:24:390
0.1006,-0.0239,9.8438,0.1209,-0.4273,9.7966,0.0954,0.5922,-0.0659,33.0,44.14,-1.62,21.55,269.7,4.6,0.1,2.0,35.487,-7.760331,110.37555,543.66,NaN,0.0,10.374194,,17 / 37,5564,2020-09-27 05:39:24:399
0.1006,-0.0239,9.8438,0.1209,-0.4273,9.7966,0.0954,0.5922,-0.0659,33.0,44.14,-1.62,21.55,269.7,4.6,0.1,2.0,35.487,-7.760331,110.37555,543.66,NaN,0.0,10.374194,,17 / 37,5575,2020-09-27 05:39:24:410
0.1006,-0.0239,9.8438,0.1209,-0.4273,9.7966,0.0954,0.5922,-0.0659,33.0,42.69,0.55,20.5,272.54,2.5,-0.71,2.0,35.487,-7.760331,110.37555,543.66,NaN,0.0,10.374194,,17 / 37,5585,2020-09-27 05:39:24:420
0.1006,-0.0239,9.8438,0.1209,-0.4273,9.7966,0.0954,0.5922,-0.0659,33.0,42.69,0.55,20.5,272.54,2.5,-0.71,2.0,35.487,-7.760331,110.37555,543.66,NaN,0.0,10.374194,,17 / 37,5595,2020-09-27 05:39:24:430
0.1006,-0.0239,9.8438,0.1209,-0.4273,9.7966,0.0954,0.5922,-0.0659,33.0,42.69,0.55,20.5,272.54,2.5,-0.71,2.0,35.487,-7.760331,110.37555,543.66,NaN,0.0,10.374194,,17 / 37,5605,2020-09-27 05:39:24:440
0.1006,-0.0239,9.8438,0.1209,-0.4273,9.7966,0.0954,0.5922,-0.0659,33.0,42.69,0.55,20.5,272.54,2.5,-0.71,2.0,35.487,-7.760331,110.37555,543.66,NaN,0.0,10.374194,,17 / 37,5615,2020-09-27 05:39:24:450
0.5794,0.4549,9.9826,0.1822,-0.2372,9.8021,0.2157,0.6579,0.1499,33.0,42.69,0.55,20.5,272.54,2.5,-0.71,2.0,35.487,-7.760331,110.37555,543.66,NaN,0.0,10.374194,,17 / 37,5625,2020-09-27 05:39:24:460
0.5794,0.4549,9.9826,0.1822,-0.2372,9.8021,0.2157,0.6579,0.1499,33.0,42.69,0.55,20.5,272.54,2.5,-0.71,2.0,35.487,-7.760331,110.37555,543.66,NaN,0.0,10.374194,,17 / 37,5634,2020-09-27 05:39:24:469
0.5794,0.4549,9.9826,0.1822,-0.2372,9.8021,0.2157,0.6579,0.1499,33.0,42.69,0.55,20.5,272.54,2.5,-0.71,2.0,35.487,-7.760331,110.37555,543.66,NaN,0.0,10.374194,,17 / 37,5645,2020-09-27 05:39:24:480
0.5794,0.4549,9.9826,0.1822,-0.2372,9.8021,0.2157,0.6579,0.1499,33.0,42.69,0.55,20.5,272.54,2.5,-0.71,2.0,35.487,-7.760331,110.37555,543.66,NaN,0.0,10.374194,,17 / 37,5655,2020-09-27 05:39:24:490
0.5794,0.4549,9.9826,0.1822,-0.2372,9.8021,0.2157,0.6579,0.1499,33.0,42.69,0.55,20.5,272.54,2.5,-0.71,2.0,35.487,-7.760331,110.37555,543.66,NaN,0.0,10.374194,,17 / 37,5665,2020-09-27 05:39:24:500
0.5794,0.4549,9.9826,0.1822,-0.2372,9.8021,0.2157,0.6579,0.1499,33.0,42.69,0.55,20.5,272.54,2.5,-0.71,2.0,35.487,-7.760331,110.37555,543.66,NaN,0.0,10.374194,,17 / 37,5675,2020-09-27 05:39:24:510
0.5794,0.4549,9.9826,0.1822,-0.2372,9.8021,0.2157,0.6579,0.1499,33.0,42.69,0.55,20.5,272.54,2.5,-0.71,2.0,35.487,-7.760331,110.37555,543.66,NaN,0.0,10.374194,,17 / 37,5686,2020-09-27 05:39:24:521
0.5794,0.4549,9.9826,0.1822,-0.2372,9.8021,0.2157,0.6579,0.1499,33.0,42.69,0.55,20.5,272.54,2.5,-0.71,2.0,35.487,-7.760331,110.37555,543.66,NaN,0.0,10.374194,,17 / 37,5694,2020-09-27 05:39:24:529
0.5794,0.4549,9.9826,0.1822,-0.2372,9.8021,0.2157,0.6579,0.1499,33.0,46.69,0.07,18.95,270.59,1.39,-1.07,2.0,35.487,-7.760331,110.37555,543.66,NaN,0.0,10.374194,,17 / 37,5705,2020-09-27 05:39:24:540
0.5794,0.4549,9.9826,0.1822,-0.2372,9.8021,0.2157,0.6579,0.1499,33.0,46.69,0.07,18.95,270.59,1.39,-1.07,2.0,34.798,-7.760331,110.37555,543.66,NaN,0.0,10.374194,,17 / 37,5715,2020-09-27 05:39:24:550
0.5794,0.4549,9.9826,0.1822,-0.2372,9.8021,0.2157,0.6579,0.1499,33.0,46.69,0.07,18.95,270.59,1.39,-1.07,2.0,34.798,-7.760331,110.37555,543.66,NaN,0.0,10.374194,,17 / 37,5724,2020-09-27 05:39:24:559
0.5794,0.4549,9.9826,0.1822,-0.2372,9.8021,0.2157,0.6579,0.1499,33.0,46.69,0.07,18.95,270.59,1.39,-1.07,2.0,34.798,-7.760331,110.37555,543.66,NaN,0.0,10.374194,,17 / 37,5735,2020-09-27 05:39:24:570
0.5794,0.4549,9.9826,0.1822,-0.2372,9.8021,0.2157,0.6579,0.1499,33.0,46.69,0.07,18.95,270.59,1.39,-1.07,2.0,34.798,-7.760331,110.37555,543.66,NaN,0.0,10.374194,,17 / 37,5745,2020-09-27 05:39:24:580
0.2969,1.0487,9.001,0.1822,-0.2372,9.8021,0.2157,0.6579,0.1499,33.0,46.69,0.07,18.95,270.59,1.39,-1.07,2.0,34.798,-7.760331,110.37555,543.66,NaN,0.0,10.374194,,17 / 37,5755,2020-09-27 05:39:24:590
0.2969,1.0487,9.001,0.1822,-0.2372,9.8021,0.2157,0.6579,0.1499,33.0,46.69,0.07,18.95,270.59,1.39,-1.07,2.0,34.798,-7.760331,110.37555,543.66,NaN,0.0,10.374194,,17 / 37,5765,2020-09-27 05:39:24:600
0.2969,1.0487,9.001,0.3692,0.3635,9.793,0.016,0.6632,-0.5003,33.0,46.69,0.07,18.95,270.59,1.39,-1.07,2.0,34.798,-7.760331,110.37555,543.66,NaN,0.0,10.374194,,17 / 37,5775,2020-09-27 05:39:24:610
0.2969,1.0487,9.001,0.3692,0.3635,9.793,0.016,0.6632,-0.5003,38.0,46.69,0.07,18.95,270.59,1.39,-1.07,2.0,34.798,-7.760331,110.37555,543.66,NaN,0.0,10.374194,,17 / 37,5785,2020-09-27 05:39:24:620
0.2969,1.0487,9.001,0.3692,0.3635,9.793,0.016,0.6632,-0.5003,38.0,46.69,0.07,18.95,270.59,1.39,-1.07,2.0,34.798,-7.760331,110.37555,543.66,NaN,0.0,10.374194,,17 / 37,5794,2020-09-27 05:39:24:629
0.2969,1.0487,9.001,0.3692,0.3635,9.793,0.016,0.6632,-0.5003,38.0,46.69,0.07,18.95,270.59,1.39,-1.07,2.0,34.798,-7.760331,110.37555,543.66,NaN,0.0,10.374194,,17 / 37,5805,2020-09-27 05:39:24:640
0.2969,1.0487,9.001,0.3692,0.3635,9.793,0.016,0.6632,-0.5003,38.0,46.69,0.07,18.95,270.59,1.39,-1.07,2.0,34.798,-7.760331,110.37555,543.66,NaN,0.0,10.374194,,17 / 37,5815,2020-09-27 05:39:24:650
0.2969,1.0487,9.001,0.3692,0.3635,9.793,0.016,0.6632,-0.5003,38.0,46.69,0.07,18.95,270.59,1.39,-1.07,2.0,34.798,-7.760331,110.37555,543.66,NaN,0.0,10.374194,,17 / 37,5825,2020-09-27 05:39:24:660
0.2969,1.0487,9.001,0.3692,0.3635,9.793,0.016,0.6632,-0.5003,38.0,46.69,0.07,18.95,270.59,1.39,-1.07,2.0,34.798,-7.760331,110.37555,543.66,NaN,0.0,10.374194,,17 / 37,5835,2020-09-27 05:39:24:670
0.2969,1.0487,9.001,0.3692,0.3635,9.793,0.016,0.6632,-0.5003,38.0,46.69,0.07,18.95,270.59,1.39,-1.07,2.0,34.798,-7.760331,110.37555,543.66,NaN,0.0,10.374194,,17 / 37,5846,2020-09-27 05:39:24:681
0.2969,1.0487,9.001,0.3692,0.3635,9.793,0.016,0.6632,-0.5003,38.0,46.13,1.69,14.68,271.74,-2.12,-2.16,2.0,34.798,-7.760331,110.37555,543.66,NaN,0.0,10.374194,,17 / 37,5855,2020-09-27 05:39:24:690
0.2969,1.0487,9.001,0.3692,0.3635,9.793,0.016,0.6632,-0.5003,38.0,46.13,1.69,14.68,271.74,-2.12,-2.16,2.0,34.798,-7.760331,110.37555,543.66,NaN,0.0,10.374194,,17 / 37,5867,2020-09-27 05:39:24:702
0.2969,1.0487,9.001,0.3692,0.3635,9.793,0.016,0.6632,-0.5003,38.0,46.13,1.69,14.68,271.74,-2.12,-2.16,2.0,34.798,-7.760331,110.37555,543.66,NaN,0.0,10.374194,,17 / 37,5876,2020-09-27 05:39:24:711
0.6752,1.3168,8.685,0.3692,0.3635,9.793,0.016,0.6632,-0.5003,38.0,46.13,1.69,14.68,271.74,-2.12,-2.16,2.0,34.798,-7.760331,110.37555,543.66,NaN,0.0,10.374194,,17 / 37,5885,2020-09-27 05:39:24:720
0.6752,1.3168,8.685,0.3692,0.3635,9.793,0.016,0.6632,-0.5003,38.0,46.13,1.69,14.68,271.74,-2.12,-2.16,2.0,34.798,-7.760331,110.37555,543.66,NaN,0.0,10.374194,,17 / 37,5895,2020-09-27 05:39:24:730
0.6752,1.3168,8.685,0.6143,0.8248,9.7526,0.707,0.8862,-0.6652,38.0,46.13,1.69,14.68,271.74,-2.12,-2.16,2.0,34.798,-7.760331,110.37555,543.66,NaN,0.0,10.374194,,17 / 37,5904,2020-09-27 05:39:24:739
0.6752,1.3168,8.685,0.6143,0.8248,9.7526,0.707,0.8862,-0.6652,38.0,46.13,1.69,14.68,271.74,-2.12,-2.16,2.0,34.798,-7.760331,110.37555,543.66,NaN,0.0,10.374194,,17 / 37,5915,2020-09-27 05:39:24:750
0.6752,1.3168,8.685,0.6143,0.8248,9.7526,0.707,0.8862,-0.6652,38.0,46.13,1.69,14.68,271.74,-2.12,-2.16,2.0,34.798,-7.760331,110.37555,543.66,NaN,0.0,10.374194,,17 / 37,5925,2020-09-27 05:39:24:760
0.6752,1.3168,8.685,0.6143,0.8248,9.7526,0.707,0.8862,-0.6652,38.0,46.13,1.69,14.68,271.74,-2.12,-2.16,2.0,34.798,-7.760331,110.37555,543.66,NaN,0.0,10.374194,,17 / 37,5934,2020-09-27 05:39:24:769
0.6752,1.3168,8.685,0.6143,0.8248,9.7526,0.707,0.8862,-0.6652,38.0,46.13,1.69,14.68,271.74,-2.12,-2.16,2.0,34.798,-7.760331,110.37555,543.66,NaN,0.0,10.374194,,17 / 37,5945,2020-09-27 05:39:24:780
0.6752,1.3168,8.685,0.6143,0.8248,9.7526,0.707,0.8862,-0.6652,38.0,46.13,1.69,14.68,271.74,-2.12,-2.16,2.0,34.798,-7.760331,110.37555,543.66,NaN,0.0,10.374194,,17 / 37,5955,2020-09-27 05:39:24:790
0.6752,1.3168,8.685,0.6143,0.8248,9.7526,0.707,0.8862,-0.6652,38.0,46.13,1.69,14.68,271.74,-2.12,-2.16,2.0,34.798,-7.760331,110.37555,543.66,NaN,0.0,10.374194,,17 / 37,5965,2020-09-27 05:39:24:800
0.6752,1.3168,8.685,0.6143,0.8248,9.7526,0.707,0.8862,-0.6652,38.0,46.81,0.12,10.73,268.55,-4.82,-3.6,2.0,34.798,-7.760331,110.37555,543.66,NaN,0.0,10.374194,,17 / 37,5975,2020-09-27 05:39:24:810
0.6752,1.3168,8.685,0.6143,0.8248,9.7526,0.707,0.8862,-0.6652,38.0,46.81,0.12,10.73,268.55,-4.82,-3.6,2.0,34.798,-7.760331,110.37555,543.66,NaN,0.0,10.374194,,17 / 37,5986,2020-09-27 05:39:24:821
0.6752,1.3168,8.685,0.6143,0.8248,9.7526,0.707,0.8862,-0.6652,38.0,46.81,0.12,10.73,268.55,-4.82,-3.6,2.0,34.798,-7.760331,110.37555,543.66,NaN,0.0,10.374194,,17 / 37,5997,2020-09-27 05:39:24:832
